Typical Measured Spectrum of Semrock NF03-405/488/561/635E Optical Filter       	
"For wavelengths between 320 and 1120 nm, values near or below 3e-7 (Optical Density 6.5) are measurement noise limited."	
"For wavelengths < 320 nm and > 1120 nm, values near or below 3e-6 (Optical Density 5.5) are measurement noise limited. "	
Data format:  Wavelength (nm) <tab> Transmission (0 to 1)	
340	0.01417
340.2	0.01412
340.4	0.01423
340.6	0.01401
340.8	0.01412
341	0.01437
341.2	0.0143
341.4	0.01435
341.6	0.0145
341.8	0.01464
342	0.01462
342.2	0.01461
342.4	0.01469
342.6	0.01494
342.8	0.01487
343	0.01511
343.2	0.01499
343.4	0.01513
343.6	0.01502
343.8	0.01519
344	0.01529
344.2	0.01539
344.4	0.01559
344.6	0.01601
344.8	0.01656
345	0.02256
345.2	0.04299
345.4	0.07724
345.6	0.29043
345.8	0.57401
346	0.68059
346.2	0.73748
346.4	0.75915
346.6	0.77607
346.8	0.78377
347	0.79119
347.2	0.79551
347.4	0.80663
347.6	0.8085
347.8	0.81361
348	0.818
348.2	0.82301
348.4	0.82227
348.6	0.82776
348.8	0.82737
349	0.83227
349.2	0.83005
349.4	0.83319
349.6	0.83847
349.8	0.8404
350	0.84668
350.2	0.85038
350.4	0.85431
350.6	0.85817
350.8	0.86032
351	0.86376
351.2	0.86597
351.4	0.8657
351.6	0.86797
351.8	0.86888
352	0.87252
352.2	0.87362
352.4	0.87643
352.6	0.87588
352.8	0.8758
353	0.87853
353.2	0.88264
353.4	0.8801
353.6	0.88323
353.8	0.88682
354	0.88351
354.2	0.88659
354.4	0.89082
354.6	0.88882
354.8	0.89077
355	0.89359
355.2	0.89664
355.4	0.89635
355.6	0.89795
355.8	0.89962
356	0.89862
356.2	0.90519
356.4	0.9058
356.6	0.90504
356.8	0.90509
357	0.90725
357.2	0.90622
357.4	0.90724
357.6	0.91033
357.8	0.91069
358	0.91035
358.2	0.90866
358.4	0.91337
358.6	0.91204
358.8	0.91336
359	0.9132
359.2	0.91386
359.4	0.91571
359.6	0.91626
359.8	0.91814
360	0.91465
360.2	0.91697
360.4	0.92015
360.6	0.92024
360.8	0.92051
361	0.91991
361.2	0.92261
361.4	0.92182
361.6	0.92118
361.8	0.92215
362	0.92676
362.2	0.92336
362.4	0.9242
362.6	0.92512
362.8	0.92657
363	0.92894
363.2	0.92643
363.4	0.92378
363.6	0.92772
363.8	0.92418
364	0.92344
364.2	0.92439
364.4	0.92565
364.6	0.92558
364.8	0.92792
365	0.93013
365.2	0.93331
365.4	0.92967
365.6	0.93037
365.8	0.93343
366	0.93403
366.2	0.9325
366.4	0.9336
366.6	0.93455
366.8	0.9349
367	0.92998
367.2	0.93117
367.4	0.93619
367.6	0.93549
367.8	0.93383
368	0.93106
368.2	0.93121
368.4	0.93344
368.6	0.93546
368.8	0.93159
369	0.93429
369.2	0.93616
369.4	0.93103
369.6	0.92896
369.8	0.93178
370	0.93123
370.2	0.93235
370.4	0.9283
370.6	0.92748
370.8	0.92909
371	0.93436
371.2	0.9324
371.4	0.92833
371.6	0.93077
371.8	0.93397
372	0.93599
372.2	0.93454
372.4	0.93222
372.6	0.93288
372.8	0.93318
373	0.93121
373.2	0.92728
373.4	0.92629
373.6	0.92563
373.8	0.92864
374	0.9266
374.2	0.92411
374.4	0.92509
374.6	0.93111
374.8	0.93247
375	0.92866
375.2	0.92531
375.4	0.92286
375.6	0.92664
375.8	0.93217
376	0.93134
376.2	0.9309
376.4	0.92944
376.6	0.93025
376.8	0.92926
377	0.93147
377.2	0.93176
377.4	0.9348
377.6	0.93475
377.8	0.93236
378	0.9298
378.2	0.92981
378.4	0.93096
378.6	0.9369
378.8	0.93352
379	0.9316
379.2	0.9322
379.4	0.93466
379.6	0.93906
379.8	0.93833
380	0.93578
380.2	0.9328
380.4	0.93792
380.6	0.94021
380.8	0.93946
381	0.93505
381.2	0.93678
381.4	0.9389
381.6	0.93699
381.8	0.93507
382	0.93187
382.2	0.9343
382.4	0.93574
382.6	0.93673
382.8	0.93427
383	0.93152
383.2	0.93095
383.4	0.93461
383.6	0.93619
383.8	0.93281
384	0.93046
384.2	0.93464
384.4	0.93755
384.6	0.93711
384.8	0.93417
385	0.93087
385.2	0.93025
385.4	0.93475
385.6	0.93736
385.8	0.93598
386	0.93337
386.2	0.93477
386.4	0.9376
386.6	0.93892
386.8	0.93436
387	0.93025
387.2	0.9317
387.4	0.93658
387.6	0.93907
387.8	0.93987
388	0.93701
388.2	0.93539
388.4	0.93839
388.6	0.94121
388.8	0.93945
389	0.9394
389.2	0.93991
389.4	0.9454
389.6	0.94676
389.8	0.94271
390	0.93968
390.2	0.93874
390.4	0.93829
390.6	0.93601
390.8	0.9327
391	0.93428
391.2	0.93712
391.4	0.93718
391.6	0.93447
391.8	0.93667
392	0.93765
392.2	0.93518
392.4	0.92663
392.6	0.92528
392.8	0.93387
393	0.93703
393.2	0.92772
393.4	0.93107
393.6	0.93448
393.8	0.92674
394	0.90364
394.2	0.6997
394.4	0.27198
394.6	0.03913
394.8	0.00295
395	5.18E-04
395.2	2.08E-04
395.4	1.32E-04
395.6	9.64E-05
395.8	8.64E-05
396	6.46E-05
396.2	5.88E-06
396.4	2.81E-06
396.6	1.34E-06
396.8	1.22E-06
397	1.33E-06
397.2	1.03E-06
397.4	2.78E-07
397.6	2.20E-07
397.8	2.31E-07
398	2.40E-07
398.2	2.38E-07
398.4	2.36E-07
398.6	2.34E-07
398.8	2.66E-07
399	4.05E-07
399.2	6.18E-07
399.4	4.79E-07
399.6	3.07E-07
399.8	2.19E-07
400	2.17E-07
400.2	3.64E-07
400.4	6.79E-07
400.6	1.05E-06
400.8	1.04E-06
401	1.03E-06
401.2	4.45E-07
401.4	2.21E-07
401.6	2.87E-07
401.8	3.74E-07
402	3.95E-07
402.2	3.92E-07
402.4	3.89E-07
402.6	3.86E-07
402.8	3.07E-07
403	2.31E-07
403.2	1.88E-07
403.4	1.86E-07
403.6	1.84E-07
403.8	1.83E-07
404	1.98E-07
404.2	2.58E-07
404.4	3.36E-07
404.6	2.86E-07
404.8	2.15E-07
405	1.95E-07
405.2	3.12E-07
405.4	2.75E-07
405.6	2.07E-07
405.8	1.67E-07
406	1.66E-07
406.2	1.64E-07
406.4	1.63E-07
406.6	1.62E-07
406.8	1.60E-07
407	1.59E-07
407.2	2.20E-07
407.4	3.38E-07
407.6	3.90E-07
407.8	1.79E-07
408	1.54E-07
408.2	1.53E-07
408.4	1.52E-07
408.6	1.51E-07
408.8	1.50E-07
409	1.49E-07
409.2	1.62E-07
409.4	2.11E-07
409.6	2.75E-07
409.8	3.59E-07
410	4.67E-07
410.2	5.66E-07
410.4	5.62E-07
410.6	3.60E-07
410.8	2.07E-07
411	1.54E-07
411.2	2.36E-07
411.4	3.62E-07
411.6	6.27E-07
411.8	9.83E-07
412	1.13E-06
412.2	1.29E-06
412.4	2.07E-06
412.6	3.66E-06
412.8	1.63E-05
413	2.09E-04
413.2	2.63E-04
413.4	3.44E-04
413.6	4.99E-04
413.8	8.95E-04
414	0.00202
414.2	0.01632
414.4	0.24644
414.6	0.68842
414.8	0.8268
415	0.93441
415.2	0.92902
415.4	0.93557
415.6	0.94624
415.8	0.94694
416	0.94955
416.2	0.95763
416.4	0.95816
416.6	0.94661
416.8	0.94548
417	0.954
417.2	0.96645
417.4	0.96901
417.6	0.96533
417.8	0.96185
418	0.96532
418.2	0.96905
418.4	0.97058
418.6	0.96935
418.8	0.9692
419	0.96991
419.2	0.96953
419.4	0.96366
419.6	0.95505
419.8	0.95157
420	0.9552
420.2	0.96408
420.4	0.97055
420.6	0.97162
420.8	0.96739
421	0.96431
421.2	0.9644
421.4	0.96911
421.6	0.97237
421.8	0.97104
422	0.96715
422.2	0.96109
422.4	0.95876
422.6	0.96167
422.8	0.96842
423	0.97162
423.2	0.97109
423.4	0.9671
423.6	0.96501
423.8	0.96618
424	0.96932
424.2	0.97086
424.4	0.9702
424.6	0.96481
424.8	0.95869
425	0.95688
425.2	0.96028
425.4	0.96477
425.6	0.96935
425.8	0.96849
426	0.96573
426.2	0.96086
426.4	0.95948
426.6	0.9605
426.8	0.96503
427	0.96791
427.2	0.9682
427.4	0.96683
427.6	0.9623
427.8	0.96142
428	0.96412
428.2	0.96567
428.4	0.9672
428.6	0.96596
428.8	0.9615
429	0.95721
429.2	0.95496
429.4	0.95638
429.6	0.96045
429.8	0.9644
430	0.96596
430.2	0.96426
430.4	0.96134
430.6	0.95853
430.8	0.95972
431	0.96299
431.2	0.96571
431.4	0.96401
431.6	0.95878
431.8	0.95167
432	0.94679
432.2	0.94564
432.4	0.95044
432.6	0.95695
432.8	0.96338
433	0.96644
433.2	0.96371
433.4	0.95943
433.6	0.95549
433.8	0.95457
434	0.9569
434.2	0.96159
434.4	0.96497
434.6	0.96543
434.8	0.9631
435	0.96018
435.2	0.95857
435.4	0.95979
435.6	0.96235
435.8	0.96425
436	0.96529
436.2	0.96243
436.4	0.95855
436.6	0.95502
436.8	0.95354
437	0.95533
437.2	0.95924
437.4	0.96261
437.6	0.96277
437.8	0.9596
438	0.95541
438.2	0.95135
438.4	0.95078
438.6	0.95346
438.8	0.9574
439	0.96076
439.2	0.96118
439.4	0.95839
439.6	0.95429
439.8	0.95041
440	0.95006
440.2	0.95219
440.4	0.95604
440.6	0.96013
440.8	0.95969
441	0.95779
441.2	0.95401
441.4	0.9504
441.6	0.94963
441.8	0.95114
442	0.95495
442.2	0.95734
442.4	0.95835
442.6	0.95643
442.8	0.95242
443	0.94968
443.2	0.94832
443.4	0.95133
443.6	0.9556
443.8	0.95964
444	0.96096
444.2	0.96011
444.4	0.95625
444.6	0.95295
444.8	0.95096
445	0.95154
445.2	0.95563
445.4	0.95933
445.6	0.9618
445.8	0.96069
446	0.95738
446.2	0.95271
446.4	0.95004
446.6	0.94986
446.8	0.95227
447	0.95601
447.2	0.95881
447.4	0.96026
447.6	0.9592
447.8	0.95662
448	0.953
448.2	0.95164
448.4	0.95315
448.6	0.95606
448.8	0.96002
449	0.9616
449.2	0.96125
449.4	0.95846
449.6	0.95608
449.8	0.95434
450	0.95405
450.2	0.95583
450.4	0.95884
450.6	0.961
450.8	0.96126
451	0.95924
451.2	0.95612
451.4	0.95268
451.6	0.95195
451.8	0.95359
452	0.95671
452.2	0.95885
452.4	0.9609
452.6	0.95991
452.8	0.9579
453	0.95535
453.2	0.95281
453.4	0.95293
453.6	0.95532
453.8	0.95873
454	0.96072
454.2	0.96117
454.4	0.95936
454.6	0.95631
454.8	0.95369
455	0.95212
455.2	0.95197
455.4	0.9541
455.6	0.95667
455.8	0.95866
456	0.95897
456.2	0.9569
456.4	0.95554
456.6	0.95341
456.8	0.95262
457	0.95369
457.2	0.95487
457.4	0.95705
457.6	0.95765
457.8	0.957
458	0.95418
458.2	0.95082
458.4	0.95014
458.6	0.9514
458.8	0.95389
459	0.95759
459.2	0.96
459.4	0.96093
459.6	0.9595
459.8	0.95625
460	0.95454
460.2	0.9528
460.4	0.95386
460.6	0.9566
460.8	0.95979
461	0.96196
461.2	0.96229
461.4	0.95977
461.6	0.95637
461.8	0.95274
462	0.95131
462.2	0.95216
462.4	0.95475
462.6	0.95881
462.8	0.96226
463	0.9631
463.2	0.96039
463.4	0.95673
463.6	0.9531
463.8	0.95061
464	0.95172
464.2	0.95441
464.4	0.9582
464.6	0.96165
464.8	0.96248
465	0.96068
465.2	0.9567
465.4	0.95326
465.6	0.95124
465.8	0.95234
466	0.95477
466.2	0.95932
466.4	0.96295
466.6	0.96404
466.8	0.96203
467	0.9585
467.2	0.95383
467.4	0.95116
467.6	0.95118
467.8	0.95323
468	0.95801
468.2	0.9627
468.4	0.96573
468.6	0.96695
468.8	0.96539
469	0.96221
469.2	0.96045
469.4	0.96073
469.6	0.96149
469.8	0.96403
470	0.96638
470.2	0.96739
470.4	0.96525
470.6	0.96352
470.8	0.96083
471	0.95867
471.2	0.95985
471.4	0.96269
471.6	0.96496
471.8	0.96748
472	0.96793
472.2	0.96679
472.4	0.96463
472.6	0.96344
472.8	0.96282
473	0.96418
473.2	0.96584
473.4	0.96815
473.6	0.96757
473.8	0.96618
474	0.9619
474.2	0.95938
474.4	0.95958
474.6	0.96124
474.8	0.96457
475	0.9677
475.2	0.96866
475.4	0.96587
475.6	0.96224
475.8	0.95906
476	0.95872
476.2	0.96178
476.4	0.9661
476.6	0.96871
476.8	0.96734
477	0.96255
477.2	0.95845
477.4	0.95793
477.6	0.96151
477.8	0.96742
478	0.96898
478.2	0.96243
478.4	0.95301
478.6	0.9489
478.8	0.95568
479	0.96576
479.2	0.95628
479.4	0.92264
479.6	0.86741
479.8	0.70309
480	0.36495
480.2	0.11572
480.4	0.02518
480.6	0.0079
480.8	0.00295
481	0.00134
481.2	7.32E-04
481.4	4.62E-04
481.6	2.13E-04
481.8	5.31E-05
482	2.72E-05
482.2	1.68E-05
482.4	1.11E-05
482.6	6.93E-06
482.8	4.99E-06
483	3.22E-06
483.2	2.24E-06
483.4	1.56E-06
483.6	1.24E-06
483.8	1.39E-06
484	1.40E-06
484.2	8.94E-07
484.4	6.27E-07
484.6	6.98E-07
484.8	8.14E-07
485	7.97E-07
485.2	1.07E-06
485.4	5.48E-07
485.6	6.05E-07
485.8	3.73E-07
486	6.43E-07
486.2	6.24E-07
486.4	5.68E-07
486.6	3.19E-07
486.8	3.48E-07
487	1.70E-07
487.2	3.11E-07
487.4	6.69E-07
487.6	4.21E-07
487.8	6.78E-07
488	1.81E-07
488.2	6.28E-07
488.4	6.10E-07
488.6	8.13E-07
488.8	7.41E-07
489	7.64E-07
489.2	7.15E-07
489.4	5.75E-07
489.6	3.82E-07
489.8	5.37E-07
490	8.14E-07
490.2	7.47E-07
490.4	1.43E-06
490.6	1.51E-06
490.8	1.25E-06
491	1.88E-06
491.2	2.61E-06
491.4	3.02E-06
491.6	4.29E-06
491.8	6.70E-06
492	1.01E-05
492.2	1.53E-05
492.4	2.47E-05
492.6	4.17E-05
492.8	6.99E-05
493	1.32E-04
493.2	2.71E-04
493.4	0.00108
493.6	0.00188
493.8	0.00379
494	0.00914
494.2	0.02618
494.4	0.08885
494.6	0.31226
494.8	0.72174
495	0.84802
495.2	0.87204
495.4	0.91234
495.6	0.95029
495.8	0.9641
496	0.96016
496.2	0.95433
496.4	0.95392
496.6	0.95747
496.8	0.9609
497	0.96134
497.2	0.9603
497.4	0.95983
497.6	0.96184
497.8	0.96584
498	0.96938
498.2	0.97192
498.4	0.97135
498.6	0.96869
498.8	0.96496
499	0.96289
499.2	0.96298
499.4	0.96485
499.6	0.9681
499.8	0.97078
500	0.97162
500.2	0.97137
500.4	0.96927
500.6	0.96772
500.8	0.96716
501	0.96687
501.2	0.96882
501.4	0.97103
501.6	0.9733
501.8	0.97412
502	0.97388
502.2	0.97229
502.4	0.96983
502.6	0.96819
502.8	0.96705
503	0.96653
503.2	0.96753
503.4	0.96912
503.6	0.97081
503.8	0.97198
504	0.97249
504.2	0.9712
504.4	0.97084
504.6	0.96986
504.8	0.96934
505	0.96942
505.2	0.97012
505.4	0.97018
505.6	0.97057
505.8	0.9701
506	0.9692
506.2	0.968
506.4	0.96634
506.6	0.9645
506.8	0.96359
507	0.9625
507.2	0.9625
507.4	0.96274
507.6	0.96301
507.8	0.96429
508	0.96468
508.2	0.96564
508.4	0.9662
508.6	0.96708
508.8	0.96663
509	0.96661
509.2	0.96694
509.4	0.96713
509.6	0.96681
509.8	0.96711
510	0.96628
510.2	0.96628
510.4	0.96566
510.6	0.96514
510.8	0.9653
511	0.966
511.2	0.96695
511.4	0.96821
511.6	0.96878
511.8	0.96894
512	0.96946
512.2	0.96942
512.4	0.96836
512.6	0.96773
512.8	0.96748
513	0.9673
513.2	0.96729
513.4	0.9676
513.6	0.96805
513.8	0.96805
514	0.96835
514.2	0.96762
514.4	0.96732
514.6	0.96597
514.8	0.96487
515	0.96333
515.2	0.96258
515.4	0.96318
515.6	0.9636
515.8	0.96503
516	0.96577
516.2	0.96763
516.4	0.9689
516.6	0.96953
516.8	0.969
517	0.96824
517.2	0.96769
517.4	0.966
517.6	0.96527
517.8	0.96451
518	0.96423
518.2	0.96504
518.4	0.96524
518.6	0.96624
518.8	0.96608
519	0.96639
519.2	0.96576
519.4	0.96465
519.6	0.96296
519.8	0.96142
520	0.96009
520.2	0.95849
520.4	0.95846
520.6	0.95834
520.8	0.95874
521	0.96013
521.2	0.96184
521.4	0.96321
521.6	0.96411
521.8	0.96477
522	0.9645
522.2	0.96398
522.4	0.96326
522.6	0.96226
522.8	0.96172
523	0.96061
523.2	0.96001
523.4	0.96042
523.6	0.96033
523.8	0.96121
524	0.96185
524.2	0.96249
524.4	0.96356
524.6	0.96367
524.8	0.96355
525	0.96339
525.2	0.96255
525.4	0.96138
525.6	0.96037
525.8	0.95879
526	0.95834
526.2	0.95791
526.4	0.95762
526.6	0.95791
526.8	0.95901
527	0.95994
527.2	0.96011
527.4	0.96052
527.6	0.95955
527.8	0.95837
528	0.95689
528.2	0.9551
528.4	0.95338
528.6	0.95274
528.8	0.95238
529	0.95293
529.2	0.95444
529.4	0.95631
529.6	0.9588
529.8	0.9611
530	0.96299
530.2	0.96411
530.4	0.96458
530.6	0.96388
530.8	0.96285
531	0.96156
531.2	0.96019
531.4	0.95948
531.6	0.95906
531.8	0.95912
532	0.96004
532.2	0.96127
532.4	0.96291
532.6	0.96394
532.8	0.96473
533	0.96459
533.2	0.96456
533.4	0.96403
533.6	0.96315
533.8	0.96254
534	0.96212
534.2	0.96237
534.4	0.96278
534.6	0.96334
534.8	0.96378
535	0.96372
535.2	0.96313
535.4	0.96123
535.6	0.95848
535.8	0.95494
536	0.95117
536.2	0.94754
536.4	0.94296
536.6	0.93959
536.8	0.93671
537	0.93405
537.2	0.93251
537.4	0.93158
537.6	0.93189
537.8	0.93267
538	0.93449
538.2	0.93706
538.4	0.94075
538.6	0.94496
538.8	0.94975
539	0.9542
539.2	0.95872
539.4	0.96202
539.6	0.96439
539.8	0.9647
540	0.96398
540.2	0.96201
540.4	0.95885
540.6	0.95532
540.8	0.95303
541	0.9505
541.2	0.95069
541.4	0.951
541.6	0.95246
541.8	0.95484
542	0.95732
542.2	0.95934
542.4	0.95988
542.6	0.96013
542.8	0.95925
543	0.95749
543.2	0.95531
543.4	0.95444
543.6	0.95377
543.8	0.95358
544	0.95407
544.2	0.95459
544.4	0.95534
544.6	0.95553
544.8	0.95615
545	0.95671
545.2	0.95776
545.4	0.95887
545.6	0.96063
545.8	0.96113
546	0.96235
546.2	0.96195
546.4	0.96082
546.6	0.95913
546.8	0.95718
547	0.9558
547.2	0.95531
547.4	0.95639
547.6	0.95842
547.8	0.96057
548	0.96117
548.2	0.96028
548.4	0.9567
548.6	0.95299
548.8	0.95088
549	0.95193
549.2	0.955
549.4	0.95733
549.6	0.95344
549.8	0.94134
550	0.93121
550.2	0.90313
550.4	0.8424
550.6	0.68847
550.8	0.43603
551	0.21146
551.2	0.0901
551.4	0.03676
551.6	0.0161
551.8	0.00757
552	0.00385
552.2	0.00211
552.4	0.00124
552.6	4.77E-04
552.8	2.81E-04
553	1.70E-04
553.2	1.05E-04
553.4	6.71E-05
553.6	4.60E-05
553.8	3.07E-05
554	2.19E-05
554.2	1.56E-05
554.4	1.12E-05
554.6	8.21E-06
554.8	6.07E-06
555	4.50E-06
555.2	3.36E-06
555.4	2.58E-06
555.6	1.99E-06
555.8	1.58E-06
556	1.33E-06
556.2	1.12E-06
556.4	8.60E-07
556.6	6.95E-07
556.8	6.95E-07
557	6.94E-07
557.2	5.96E-07
557.4	4.90E-07
557.6	4.24E-07
557.8	4.24E-07
558	4.07E-07
558.2	3.87E-07
558.4	3.67E-07
558.6	3.46E-07
558.8	3.26E-07
559	3.02E-07
559.2	2.82E-07
559.4	2.77E-07
559.6	2.71E-07
559.8	2.66E-07
560	2.61E-07
560.2	2.45E-07
560.4	2.01E-07
560.6	2.05E-07
560.8	2.20E-07
561	2.37E-07
561.2	2.57E-07
561.4	2.79E-07
561.6	2.63E-07
561.8	2.51E-07
562	2.71E-07
562.2	2.92E-07
562.4	3.23E-07
562.6	3.59E-07
562.8	3.64E-07
563	2.86E-07
563.2	2.90E-07
563.4	3.15E-07
563.6	3.55E-07
563.8	4.41E-07
564	5.48E-07
564.2	6.27E-07
564.4	7.10E-07
564.6	8.39E-07
564.8	9.92E-07
565	1.16E-06
565.2	1.35E-06
565.4	1.62E-06
565.6	2.18E-06
565.8	2.77E-06
566	3.45E-06
566.2	4.41E-06
566.4	5.96E-06
566.6	8.04E-06
566.8	1.09E-05
567	1.49E-05
567.2	2.11E-05
567.4	2.98E-05
567.6	4.41E-05
567.8	6.62E-05
568	1.03E-04
568.2	1.68E-04
568.4	2.75E-04
568.6	4.54E-04
568.8	7.80E-04
569	0.0014
569.2	0.00263
569.4	0.00589
569.6	0.01278
569.8	0.02812
570	0.06831
570.2	0.1803
570.4	0.42714
570.6	0.7332
570.8	0.87412
571	0.87115
571.2	0.87605
571.4	0.90118
571.6	0.93023
571.8	0.94804
572	0.95201
572.2	0.94853
572.4	0.94351
572.6	0.94174
572.8	0.944
573	0.94834
573.2	0.95244
573.4	0.95443
573.6	0.95396
573.8	0.95167
574	0.94945
574.2	0.94769
574.4	0.9488
574.6	0.95065
574.8	0.95401
575	0.95717
575.2	0.95919
575.4	0.95915
575.6	0.95751
575.8	0.95389
576	0.9507
576.2	0.94706
576.4	0.94522
576.6	0.945
576.8	0.94683
577	0.94888
577.2	0.9522
577.4	0.95537
577.6	0.95776
577.8	0.95856
578	0.9578
578.2	0.95655
578.4	0.95376
578.6	0.95157
578.8	0.95025
579	0.94924
579.2	0.94982
579.4	0.95188
579.6	0.95381
579.8	0.95707
580	0.9591
580.2	0.96075
580.4	0.96091
580.6	0.95987
580.8	0.95787
581	0.95548
581.2	0.95279
581.4	0.95048
581.6	0.94896
581.8	0.94856
582	0.94919
582.2	0.95076
582.4	0.95258
582.6	0.95517
582.8	0.95799
583	0.95933
583.2	0.96076
583.4	0.9612
583.6	0.96104
583.8	0.96043
584	0.95933
584.2	0.95851
584.4	0.95798
584.6	0.95808
584.8	0.95896
585	0.95952
585.2	0.96062
585.4	0.96149
585.6	0.96287
585.8	0.9635
586	0.96365
586.2	0.96274
586.4	0.96166
586.6	0.96044
586.8	0.95932
587	0.95811
587.2	0.95731
587.4	0.9565
587.6	0.95647
587.8	0.95662
588	0.95696
588.2	0.95739
588.4	0.95768
588.6	0.95708
588.8	0.95697
589	0.95644
589.2	0.95565
589.4	0.95499
589.6	0.95397
589.8	0.95359
590	0.95345
590.2	0.95319
590.4	0.95316
590.6	0.95341
590.8	0.95373
591	0.95349
591.2	0.95377
591.4	0.95347
591.6	0.95269
591.8	0.95233
592	0.95179
592.2	0.9514
592.4	0.95139
592.6	0.95165
592.8	0.95289
593	0.95383
593.2	0.95617
593.4	0.95811
593.6	0.95991
593.8	0.96174
594	0.96299
594.2	0.96384
594.4	0.96359
594.6	0.96334
594.8	0.96247
595	0.96135
595.2	0.95998
595.4	0.95869
595.6	0.95772
595.8	0.95707
596	0.95725
596.2	0.95749
596.4	0.9587
596.6	0.95964
596.8	0.96132
597	0.96128
597.2	0.96258
597.4	0.96266
597.6	0.96196
597.8	0.96163
598	0.96094
598.2	0.96036
598.4	0.95978
598.6	0.95987
598.8	0.96021
599	0.96033
599.2	0.96149
599.4	0.96282
599.6	0.96347
599.8	0.96417
600	0.96388
600.2	0.96345
600.4	0.96224
600.6	0.96
600.8	0.9575
601	0.95458
601.2	0.95144
601.4	0.94842
601.6	0.9462
601.8	0.94469
602	0.94326
602.2	0.94378
602.4	0.94417
602.6	0.94613
602.8	0.94797
603	0.95033
603.2	0.95269
603.4	0.95441
603.6	0.95701
603.8	0.95871
604	0.96018
604.2	0.96135
604.4	0.96271
604.6	0.96355
604.8	0.96446
605	0.96472
605.2	0.96531
605.4	0.96524
605.6	0.96501
605.8	0.96442
606	0.96332
606.2	0.96257
606.4	0.96126
606.6	0.96034
606.8	0.959
607	0.95839
607.2	0.95805
607.4	0.95783
607.6	0.95838
607.8	0.95949
608	0.9602
608.2	0.96057
608.4	0.962
608.6	0.96259
608.8	0.96276
609	0.96247
609.2	0.96248
609.4	0.96171
609.6	0.96153
609.8	0.96081
610	0.96067
610.2	0.96062
610.4	0.96129
610.6	0.96185
610.8	0.96286
611	0.9639
611.2	0.96485
611.4	0.96649
611.6	0.96709
611.8	0.9674
612	0.96753
612.2	0.96698
612.4	0.96627
612.6	0.96498
612.8	0.964
613	0.96244
613.2	0.96188
613.4	0.96133
613.6	0.962
613.8	0.96296
614	0.96435
614.2	0.96637
614.4	0.96769
614.6	0.96756
614.8	0.9677
615	0.96583
615.2	0.96405
615.4	0.96264
615.6	0.96289
615.8	0.96395
616	0.96497
616.2	0.96143
616.4	0.94868
616.6	0.91458
616.8	0.84145
617	0.70837
617.2	0.51364
617.4	0.41321
617.6	0.2313
617.8	0.1137
618	0.05277
618.2	0.02504
618.4	0.01239
618.6	0.00569
618.8	0.00237
619	0.00125
619.2	6.76E-04
619.4	3.84E-04
619.6	2.27E-04
619.8	1.35E-04
620	8.30E-05
620.2	5.11E-05
620.4	3.20E-05
620.6	2.03E-05
620.8	1.35E-05
621	8.91E-06
621.2	5.82E-06
621.4	3.93E-06
621.6	2.88E-06
621.8	2.12E-06
622	1.50E-06
622.2	1.05E-06
622.4	7.66E-07
622.6	6.29E-07
622.8	5.35E-07
623	4.59E-07
623.2	3.96E-07
623.4	3.43E-07
623.6	2.97E-07
623.8	1.77E-07
624	1.21E-07
624.2	1.56E-07
624.4	2.01E-07
624.6	1.74E-07
624.8	1.35E-07
625	1.28E-07
625.2	2.02E-07
625.4	1.81E-07
625.6	1.36E-07
625.8	1.14E-07
626	1.28E-07
626.2	1.44E-07
626.4	1.21E-07
626.6	1.00E-07
626.8	1.00E-07
627	1.00E-07
627.2	1.00E-07
627.4	1.00E-07
627.6	1.11E-07
627.8	1.58E-07
628	1.46E-07
628.2	1.17E-07
628.4	1.00E-07
628.6	1.00E-07
628.8	1.00E-07
629	1.00E-07
629.2	1.05E-07
629.4	1.22E-07
629.6	1.42E-07
629.8	1.30E-07
630	1.11E-07
630.2	1.06E-07
630.4	1.30E-07
630.6	1.24E-07
630.8	1.09E-07
631	1.01E-07
631.2	1.06E-07
631.4	1.11E-07
631.6	1.05E-07
631.8	1.00E-07
632	1.00E-07
632.2	1.00E-07
632.4	1.00E-07
632.6	1.00E-07
632.8	1.04E-07
633	1.20E-07
633.2	1.16E-07
633.4	1.07E-07
633.6	1.00E-07
633.8	1.00E-07
634	1.00E-07
634.2	1.00E-07
634.4	1.00E-07
634.6	1.00E-07
634.8	1.00E-07
635	1.00E-07
635.2	1.00E-07
635.4	1.00E-07
635.6	1.00E-07
635.8	1.00E-07
636	1.00E-07
636.2	1.00E-07
636.4	1.00E-07
636.6	1.00E-07
636.8	1.00E-07
637	1.20E-07
637.2	2.41E-07
637.4	4.84E-07
637.6	4.45E-07
637.8	3.20E-07
638	2.18E-07
638.2	1.28E-07
638.4	1.09E-07
638.6	1.04E-07
638.8	1.00E-07
639	1.00E-07
639.2	1.00E-07
639.4	1.00E-07
639.6	1.00E-07
639.8	1.00E-07
640	1.00E-07
640.2	1.00E-07
640.4	1.00E-07
640.6	1.00E-07
640.8	1.00E-07
641	1.00E-07
641.2	1.00E-07
641.4	1.00E-07
641.6	1.00E-07
641.8	1.00E-07
642	1.00E-07
642.2	1.00E-07
642.4	1.00E-07
642.6	1.00E-07
642.8	1.00E-07
643	1.00E-07
643.2	1.00E-07
643.4	1.00E-07
643.6	1.09E-07
643.8	1.23E-07
644	1.34E-07
644.2	1.34E-07
644.4	1.34E-07
644.6	1.15E-07
644.8	1.03E-07
645	1.16E-07
645.2	1.31E-07
645.4	1.48E-07
645.6	1.68E-07
645.8	1.87E-07
646	1.95E-07
646.2	2.17E-07
646.4	2.45E-07
646.6	2.91E-07
646.8	3.92E-07
647	5.28E-07
647.2	7.26E-07
647.4	1.00E-06
647.6	1.38E-06
647.8	1.90E-06
648	2.68E-06
648.2	3.80E-06
648.4	5.38E-06
648.6	7.55E-06
648.8	1.13E-05
649	1.71E-05
649.2	2.63E-05
649.4	4.11E-05
649.6	6.44E-05
649.8	1.09E-04
650	1.69E-04
650.2	2.83E-04
650.4	4.75E-04
650.6	8.39E-04
650.8	0.00154
651	0.003
651.2	0.00736
651.4	0.01499
651.6	0.03306
651.8	0.07861
652	0.19664
652.2	0.43034
652.4	0.70829
652.6	0.86824
652.8	0.88221
653	0.89541
653.2	0.91969
653.4	0.94503
653.6	0.96231
653.8	0.9683
654	0.96756
654.2	0.96396
654.4	0.96148
654.6	0.96085
654.8	0.96257
655	0.96427
655.2	0.96529
655.4	0.9648
655.6	0.96333
655.8	0.96072
656	0.95882
656.2	0.9582
656.4	0.95813
656.6	0.9601
656.8	0.96285
657	0.96641
657.2	0.97026
657.4	0.97259
657.6	0.97368
657.8	0.97334
658	0.97165
658.2	0.96893
658.4	0.96566
658.6	0.96272
658.8	0.96112
659	0.95957
659.2	0.96047
659.4	0.96159
659.6	0.96406
659.8	0.96693
660	0.96892
660.2	0.97138
660.4	0.97313
660.6	0.97354
660.8	0.97306
661	0.9717
661.2	0.9696
661.4	0.96778
661.6	0.96589
661.8	0.96484
662	0.96433
662.2	0.96426
662.4	0.96513
662.6	0.96691
662.8	0.96948
663	0.97168
663.2	0.9736
663.4	0.97481
663.6	0.9754
663.8	0.97548
664	0.97509
664.2	0.97351
664.4	0.9715
664.6	0.96897
664.8	0.96662
665	0.96567
665.2	0.96453
665.4	0.96365
665.6	0.96401
665.8	0.96518
666	0.96689
666.2	0.96868
666.4	0.97109
666.6	0.97298
666.8	0.97487
667	0.97606
667.2	0.97607
667.4	0.97604
667.6	0.97586
667.8	0.97473
668	0.97297
668.2	0.97097
668.4	0.96906
668.6	0.96801
668.8	0.96627
669	0.96563
669.2	0.96572
669.4	0.96588
669.6	0.96694
669.8	0.96817
670	0.96969
670.2	0.97109
670.4	0.97256
670.6	0.97372
670.8	0.97421
671	0.97449
671.2	0.97422
671.4	0.97346
671.6	0.97243
671.8	0.97086
672	0.96946
672.2	0.96827
672.4	0.96726
672.6	0.96668
672.8	0.96547
673	0.96675
673.2	0.96728
673.4	0.96781
673.6	0.96854
673.8	0.97012
674	0.97121
674.2	0.97235
674.4	0.97354
674.6	0.97412
674.8	0.97433
675	0.97445
675.2	0.97419
675.4	0.9734
675.6	0.97263
675.8	0.97129
676	0.97043
676.2	0.96908
676.4	0.96832
676.6	0.96772
676.8	0.96701
677	0.96695
677.2	0.96747
677.4	0.96753
677.6	0.96831
677.8	0.96933
678	0.97006
678.2	0.97087
678.4	0.97144
678.6	0.97182
678.8	0.97158
679	0.97098
679.2	0.97058
679.4	0.96983
679.6	0.96852
679.8	0.96764
680	0.96651
680.2	0.96562
680.4	0.96467
680.6	0.96424
680.8	0.96426
681	0.96431
681.2	0.96483
681.4	0.96566
681.6	0.96668
681.8	0.9676
682	0.969
682.2	0.97002
682.4	0.97087
682.6	0.97178
682.8	0.97207
683	0.97183
683.2	0.97135
683.4	0.97115
683.6	0.96998
683.8	0.96855
684	0.967
684.2	0.96607
684.4	0.96482
684.6	0.96378
684.8	0.9632
685	0.96328
685.2	0.96323
685.4	0.96336
685.6	0.96374
685.8	0.96475
686	0.96555
686.2	0.96669
686.4	0.96776
686.6	0.96883
686.8	0.96899
687	0.96963
687.2	0.96952
687.4	0.96906
687.6	0.96859
687.8	0.96785
688	0.96686
688.2	0.96601
688.4	0.96498
688.6	0.96362
688.8	0.9627
689	0.96231
689.2	0.96175
689.4	0.96221
689.6	0.96254
689.8	0.96261
690	0.96371
690.2	0.96448
690.4	0.96592
690.6	0.96703
690.8	0.96761
691	0.96865
691.2	0.96902
691.4	0.9693
691.6	0.96889
691.8	0.96844
692	0.9675
692.2	0.96699
692.4	0.96514
692.6	0.96412
692.8	0.96313
693	0.96179
693.2	0.96066
693.4	0.95993
693.6	0.95944
693.8	0.95927
694	0.9597
694.2	0.96024
694.4	0.96111
694.6	0.96204
694.8	0.96356
695	0.96418
695.2	0.96562
695.4	0.96698
695.6	0.96737
695.8	0.96817
696	0.96829
696.2	0.96786
696.4	0.96789
696.6	0.96722
696.8	0.96622
697	0.96543
697.2	0.96428
697.4	0.9628
697.6	0.96176
697.8	0.96117
698	0.96096
698.2	0.96023
698.4	0.96013
698.6	0.96022
698.8	0.9609
699	0.96187
699.2	0.96236
699.4	0.96327
699.6	0.96433
699.8	0.96548
700	0.96588
700.2	0.96672
700.4	0.96695
700.6	0.96735
700.8	0.96697
701	0.96643
701.2	0.96572
701.4	0.96453
701.6	0.96376
701.8	0.96268
702	0.96196
702.2	0.96061
702.4	0.95979
702.6	0.95958
702.8	0.95943
703	0.95916
703.2	0.95916
703.4	0.95976
703.6	0.96026
703.8	0.96096
704	0.96186
704.2	0.96316
704.4	0.96398
704.6	0.96485
704.8	0.96589
705	0.96631
705.2	0.96695
705.4	0.96665
705.6	0.96651
705.8	0.96585
706	0.96513
706.2	0.96443
706.4	0.96348
706.6	0.96229
706.8	0.96171
707	0.96054
707.2	0.95957
707.4	0.95938
707.6	0.95951
707.8	0.95929
708	0.95923
708.2	0.95952
708.4	0.96016
708.6	0.96055
708.8	0.96155
709	0.96216
709.2	0.96288
709.4	0.96367
709.6	0.9642
709.8	0.96435
710	0.96438
710.2	0.96441
710.4	0.9641
710.6	0.96359
710.8	0.96304
711	0.962
711.2	0.96152
711.4	0.96038
711.6	0.95974
711.8	0.95908
712	0.95864
712.2	0.95846
712.4	0.95826
712.6	0.95795
712.8	0.95791
713	0.95915
713.2	0.95927
713.4	0.95962
713.6	0.96054
713.8	0.96156
714	0.96184
714.2	0.96258
714.4	0.96286
714.6	0.96342
714.8	0.96328
715	0.96346
715.2	0.96352
715.4	0.96321
715.6	0.96276
715.8	0.96227
716	0.96159
716.2	0.96139
716.4	0.96057
716.6	0.96018
716.8	0.96052
717	0.96033
717.2	0.96028
717.4	0.96045
717.6	0.96103
717.8	0.9612
718	0.96211
718.2	0.96258
718.4	0.96326
718.6	0.96405
718.8	0.96525
719	0.96573
719.2	0.96601
719.4	0.96633
719.6	0.96569
719.8	0.96578
720	0.96565
720.2	0.96525
720.4	0.96437
720.6	0.96422
720.8	0.96382
721	0.96225
721.2	0.96199
721.4	0.96138
721.6	0.96093
721.8	0.96035
722	0.96014
722.2	0.96036
722.4	0.96048
722.6	0.96096
722.8	0.96202
723	0.9626
723.2	0.96347
723.4	0.96384
723.6	0.965
723.8	0.96522
724	0.96597
724.2	0.96631
724.4	0.96669
724.6	0.96658
724.8	0.96646
725	0.96646
725.2	0.966
725.4	0.96538
725.6	0.9646
725.8	0.96402
726	0.96347
726.2	0.9625
726.4	0.96255
726.6	0.96176
726.8	0.96122
727	0.9614
727.2	0.96082
727.4	0.96118
727.6	0.96128
727.8	0.96167
728	0.96228
728.2	0.9624
728.4	0.96302
728.6	0.96337
728.8	0.96406
729	0.96353
729.2	0.96355
729.4	0.96321
729.6	0.96242
729.8	0.96238
730	0.96161
730.2	0.9602
730.4	0.95947
730.6	0.9582
730.8	0.95715
731	0.95563
731.2	0.95466
731.4	0.95294
731.6	0.95217
731.8	0.95142
732	0.95116
732.2	0.95081
732.4	0.95087
732.6	0.95035
732.8	0.95104
733	0.95185
733.2	0.95262
733.4	0.9538
733.6	0.95544
733.8	0.95648
734	0.95723
734.2	0.95915
734.4	0.95996
734.6	0.9605
734.8	0.96185
735	0.96255
735.2	0.96297
735.4	0.96311
735.6	0.96325
735.8	0.9632
736	0.96377
736.2	0.96381
736.4	0.96359
736.6	0.96306
736.8	0.96275
737	0.96264
737.2	0.96267
737.4	0.9626
737.6	0.96255
737.8	0.96254
738	0.96248
738.2	0.96274
738.4	0.96353
738.6	0.96347
738.8	0.96378
739	0.96419
739.2	0.96372
739.4	0.96399
739.6	0.96384
739.8	0.96352
740	0.96328
740.2	0.96264
740.4	0.96248
740.6	0.96158
740.8	0.96073
741	0.96008
741.2	0.95936
741.4	0.95869
741.6	0.95811
741.8	0.95752
742	0.95753
742.2	0.95706
742.4	0.9569
742.6	0.95707
742.8	0.95771
743	0.95802
743.2	0.95878
743.4	0.95943
743.6	0.96034
743.8	0.96106
744	0.96161
744.2	0.96226
744.4	0.96301
744.6	0.96321
744.8	0.96409
745	0.96393
745.2	0.96357
745.4	0.96335
745.6	0.96278
745.8	0.9625
746	0.96149
746.2	0.96101
746.4	0.9596
746.6	0.95847
746.8	0.95845
747	0.95742
747.2	0.95615
747.4	0.95564
747.6	0.95573
747.8	0.95536
748	0.9556
748.2	0.95587
748.4	0.95613
748.6	0.95693
748.8	0.95756
749	0.95833
749.2	0.95937
749.4	0.96036
749.6	0.96124
749.8	0.96257
750	0.96303
750.2	0.96337
750.4	0.96408
750.6	0.96463
750.8	0.96482
751	0.96423
751.2	0.9644
751.4	0.96389
751.6	0.96325
751.8	0.96291
752	0.96181
752.2	0.96104
752.4	0.96004
752.6	0.95962
752.8	0.95882
753	0.95856
753.2	0.95777
753.4	0.95718
753.6	0.95751
753.8	0.95724
754	0.95751
754.2	0.95762
754.4	0.95813
754.6	0.95877
754.8	0.95916
755	0.95995
755.2	0.96075
755.4	0.96094
755.6	0.96137
755.8	0.96172
756	0.96224
756.2	0.96184
756.4	0.96202
756.6	0.96151
756.8	0.96111
757	0.9607
757.2	0.96042
757.4	0.95939
757.6	0.9591
757.8	0.95785
758	0.95744
758.2	0.95697
758.4	0.95679
758.6	0.95607
758.8	0.9557
759	0.95535
759.2	0.9554
759.4	0.9561
759.6	0.9565
759.8	0.95704
760	0.95761
760.2	0.95838
760.4	0.9589
760.6	0.95976
760.8	0.96025
761	0.96093
761.2	0.96116
761.4	0.96194
761.6	0.96213
761.8	0.96235
762	0.96287
762.2	0.96199
762.4	0.96196
762.6	0.96111
762.8	0.96081
763	0.95995
763.2	0.95927
763.4	0.95853
763.6	0.95772
763.8	0.95762
764	0.95725
764.2	0.95639
764.4	0.9563
764.6	0.95585
764.8	0.95619
765	0.9562
765.2	0.95639
765.4	0.95709
765.6	0.95743
765.8	0.95849
766	0.95887
766.2	0.95971
766.4	0.96048
766.6	0.96147
766.8	0.96214
767	0.96232
767.2	0.96291
767.4	0.96305
767.6	0.96333
767.8	0.96308
768	0.96294
768.2	0.96282
768.4	0.96197
768.6	0.96154
768.8	0.96064
769	0.96023
769.2	0.95912
769.4	0.95853
769.6	0.95813
769.8	0.95707
770	0.95639
770.2	0.95632
770.4	0.95599
770.6	0.95636
770.8	0.95613
771	0.95653
771.2	0.95686
771.4	0.95766
771.6	0.95754
771.8	0.95856
772	0.95922
772.2	0.95976
772.4	0.96048
772.6	0.96124
772.8	0.96214
773	0.96218
773.2	0.96224
773.4	0.96274
773.6	0.96309
773.8	0.96285
774	0.96303
774.2	0.96252
774.4	0.96229
774.6	0.96204
774.8	0.96141
775	0.96094
775.2	0.96008
775.4	0.95968
775.6	0.95939
775.8	0.95842
776	0.95847
776.2	0.95833
776.4	0.95828
776.6	0.95843
776.8	0.9582
777	0.95853
777.2	0.95911
777.4	0.95867
777.6	0.95919
777.8	0.95972
778	0.96036
778.2	0.96028
778.4	0.96117
778.6	0.96159
778.8	0.96185
779	0.96209
779.2	0.96207
779.4	0.96179
779.6	0.96158
779.8	0.96182
780	0.96153
780.2	0.96057
780.4	0.96066
780.6	0.96008
780.8	0.95944
781	0.9593
781.2	0.95919
781.4	0.95844
781.6	0.95802
781.8	0.95757
782	0.95715
782.2	0.95768
782.4	0.95748
782.6	0.95792
782.8	0.95802
783	0.95804
783.2	0.95867
783.4	0.95942
783.6	0.95997
783.8	0.96075
784	0.96123
784.2	0.9612
784.4	0.96205
784.6	0.96242
784.8	0.96242
785	0.96369
785.2	0.96337
785.4	0.9638
785.6	0.96338
785.8	0.96285
786	0.96227
786.2	0.96187
786.4	0.96157
786.6	0.96068
786.8	0.96037
787	0.95985
787.2	0.95972
787.4	0.95893
787.6	0.95912
787.8	0.95828
788	0.95828
788.2	0.95817
788.4	0.95868
788.6	0.95803
788.8	0.95835
789	0.95931
789.2	0.95964
789.4	0.9599
789.6	0.96072
789.8	0.9612
790	0.96215
790.2	0.96242
790.4	0.96295
790.6	0.96324
790.8	0.96386
791	0.96451
791.2	0.96434
791.4	0.96381
791.6	0.96394
791.8	0.96391
792	0.96394
792.2	0.96408
792.4	0.96287
792.6	0.96236
792.8	0.96177
793	0.96171
793.2	0.96117
793.4	0.96041
793.6	0.95938
793.8	0.95948
794	0.95952
794.2	0.9595
794.4	0.95914
794.6	0.95908
794.8	0.95969
795	0.95984
795.2	0.96049
795.4	0.96084
795.6	0.96165
795.8	0.96204
796	0.96331
796.2	0.96374
796.4	0.96365
796.6	0.9649
796.8	0.96505
797	0.96571
797.2	0.96569
797.4	0.96631
797.6	0.96674
797.8	0.96662
798	0.96638
798.2	0.96637
798.4	0.96514
798.6	0.96524
798.8	0.96465
799	0.96392
799.2	0.96305
799.4	0.96265
799.6	0.96226
799.8	0.96154
800	0.96072
800.2	0.96037
800.4	0.95998
800.6	0.96002
800.8	0.95978
801	0.95993
801.2	0.96062
801.4	0.96046
801.6	0.96048
801.8	0.96144
802	0.96146
802.2	0.96189
802.4	0.96289
802.6	0.96342
802.8	0.9642
803	0.96486
803.2	0.96543
803.4	0.96563
803.6	0.96555
803.8	0.96622
804	0.96611
804.2	0.96595
804.4	0.96577
804.6	0.96544
804.8	0.96497
805	0.96465
805.2	0.96442
805.4	0.96352
805.6	0.96312
805.8	0.96266
806	0.96203
806.2	0.96195
806.4	0.96159
806.6	0.96095
806.8	0.96107
807	0.96111
807.2	0.96128
807.4	0.96146
807.6	0.96148
807.8	0.96226
808	0.96258
808.2	0.96309
808.4	0.96323
808.6	0.96442
808.8	0.96522
809	0.96566
809.2	0.96638
809.4	0.967
809.6	0.96756
809.8	0.96819
810	0.96849
810.2	0.96851
810.4	0.96901
810.6	0.96852
810.8	0.96895
811	0.96869
811.2	0.96831
811.4	0.96771
811.6	0.96772
811.8	0.96714
812	0.96672
812.2	0.96665
812.4	0.96633
812.6	0.96597
812.8	0.96564
813	0.96507
813.2	0.96497
813.4	0.96481
813.6	0.96537
813.8	0.96513
814	0.96568
814.2	0.96596
814.4	0.96662
814.6	0.96668
814.8	0.96716
815	0.96794
815.2	0.9684
815.4	0.969
815.6	0.97003
815.8	0.97053
816	0.9709
816.2	0.97129
816.4	0.97144
816.6	0.97143
816.8	0.9719
817	0.97141
817.2	0.97115
817.4	0.97069
817.6	0.97041
817.8	0.96977
818	0.96929
818.2	0.96846
818.4	0.96791
818.6	0.96725
818.8	0.96683
819	0.96614
819.2	0.96526
819.4	0.9651
819.6	0.9648
819.8	0.96456
820	0.96425
820.2	0.96427
820.4	0.96404
820.6	0.96437
820.8	0.96457
821	0.96532
821.2	0.96588
821.4	0.96632
821.6	0.96686
821.8	0.96749
822	0.96786
822.2	0.96855
822.4	0.96912
822.6	0.96946
822.8	0.97024
823	0.97043
823.2	0.97043
823.4	0.97086
823.6	0.97057
823.8	0.9705
824	0.97018
824.2	0.96976
824.4	0.96929
824.6	0.96883
824.8	0.96818
825	0.96737
825.2	0.96652
825.4	0.96618
825.6	0.96555
825.8	0.96448
826	0.9641
826.2	0.96366
826.4	0.96373
826.6	0.9632
826.8	0.96315
827	0.96283
827.2	0.96324
827.4	0.96332
827.6	0.96325
827.8	0.96373
828	0.96419
828.2	0.96457
828.4	0.96565
828.6	0.96581
828.8	0.9665
829	0.96686
829.2	0.96784
829.4	0.96778
829.6	0.96824
829.8	0.96844
830	0.9688
830.2	0.96913
830.4	0.96882
830.6	0.96914
830.8	0.96876
831	0.96885
831.2	0.96834
831.4	0.96805
831.6	0.96748
831.8	0.96705
832	0.96665
832.2	0.96604
832.4	0.96562
832.6	0.96542
832.8	0.96497
833	0.96506
833.2	0.96454
833.4	0.9648
833.6	0.96476
833.8	0.96436
834	0.9649
834.2	0.96519
834.4	0.9657
834.6	0.96654
834.8	0.96694
835	0.96715
835.2	0.96839
835.4	0.96898
835.6	0.96933
835.8	0.96985
836	0.97045
836.2	0.97092
836.4	0.97121
836.6	0.97164
836.8	0.97169
837	0.97198
837.2	0.97212
837.4	0.97184
837.6	0.9715
837.8	0.97123
838	0.9704
838.2	0.97036
838.4	0.96941
838.6	0.96867
838.8	0.96812
839	0.96714
839.2	0.96671
839.4	0.96627
839.6	0.96538
839.8	0.96529
840	0.96476
840.2	0.96451
840.4	0.96441
840.6	0.96433
840.8	0.96454
841	0.96506
841.2	0.96549
841.4	0.96569
841.6	0.96615
841.8	0.96712
842	0.96813
842.2	0.9684
842.4	0.96941
842.6	0.96974
842.8	0.97068
843	0.9711
843.2	0.97198
843.4	0.97229
843.6	0.97283
843.8	0.97288
844	0.97312
844.2	0.97316
844.4	0.97312
844.6	0.973
844.8	0.97242
845	0.97213
845.2	0.97149
845.4	0.97103
845.6	0.97006
845.8	0.96915
846	0.96824
846.2	0.96772
846.4	0.96651
846.6	0.96578
846.8	0.96529
847	0.96483
847.2	0.96417
847.4	0.96378
847.6	0.96304
847.8	0.96332
848	0.96319
848.2	0.96352
848.4	0.96388
848.6	0.96405
848.8	0.9644
849	0.96599
849.2	0.96624
849.4	0.96674
849.6	0.9676
849.8	0.96851
850	0.96936
850.2	0.97013
850.4	0.97049
850.6	0.97149
850.8	0.9716
851	0.97235
851.2	0.97277
851.4	0.97269
851.6	0.97333
851.8	0.97315
852	0.9729
852.2	0.97252
852.4	0.97195
852.6	0.97195
852.8	0.97132
853	0.97046
853.2	0.97001
853.4	0.96921
853.6	0.96852
853.8	0.96796
854	0.96785
854.2	0.96692
854.4	0.96642
854.6	0.9659
854.8	0.9661
855	0.96603
855.2	0.96577
855.4	0.96585
855.6	0.96612
855.8	0.96644
856	0.967
856.2	0.96755
856.4	0.96786
856.6	0.96905
856.8	0.96959
857	0.97038
857.2	0.97073
857.4	0.97176
857.6	0.97212
857.8	0.97299
858	0.97362
858.2	0.97431
858.4	0.97487
858.6	0.97503
858.8	0.975
859	0.97493
859.2	0.97526
859.4	0.97486
859.6	0.97485
859.8	0.97427
860	0.97377
860.2	0.97346
860.4	0.97283
860.6	0.97194
860.8	0.97129
861	0.97081
861.2	0.97009
861.4	0.97002
861.6	0.96917
861.8	0.96843
862	0.96824
862.2	0.96804
862.4	0.96785
862.6	0.96804
862.8	0.96788
863	0.96753
863.2	0.96845
863.4	0.96874
863.6	0.96919
863.8	0.96962
864	0.97018
864.2	0.97078
864.4	0.97153
864.6	0.97225
864.8	0.97299
865	0.97397
865.2	0.97441
865.4	0.97483
865.6	0.9754
865.8	0.97585
866	0.9764
866.2	0.97642
866.4	0.9764
866.6	0.97668
866.8	0.97641
867	0.97604
867.2	0.97576
867.4	0.97584
867.6	0.97502
867.8	0.97463
868	0.9738
868.2	0.97306
868.4	0.97309
868.6	0.97241
868.8	0.97159
869	0.97127
869.2	0.97057
869.4	0.96996
869.6	0.97012
869.8	0.96977
870	0.96943
870.2	0.96943
870.4	0.96928
870.6	0.96984
870.8	0.96979
871	0.96966
871.2	0.97005
871.4	0.97053
871.6	0.97108
871.8	0.97172
872	0.97238
872.2	0.97293
872.4	0.97344
872.6	0.97393
872.8	0.97399
873	0.97444
873.2	0.97505
873.4	0.97592
873.6	0.97522
873.8	0.97528
874	0.97565
874.2	0.97564
874.4	0.97536
874.6	0.97573
874.8	0.97487
875	0.97426
875.2	0.97365
875.4	0.97325
875.6	0.97325
875.8	0.9724
876	0.97217
876.2	0.97106
876.4	0.97019
876.6	0.97036
876.8	0.96967
877	0.9695
877.2	0.96888
877.4	0.96895
877.6	0.96849
877.8	0.96839
878	0.96822
878.2	0.96892
878.4	0.96905
878.6	0.96888
878.8	0.96951
879	0.96979
879.2	0.9699
879.4	0.97063
879.6	0.9717
879.8	0.9723
880	0.97286
880.2	0.97308
880.4	0.97367
880.6	0.97413
880.8	0.97432
881	0.97505
881.2	0.97547
881.4	0.97573
881.6	0.97595
881.8	0.97542
882	0.97543
882.2	0.97524
882.4	0.97526
882.6	0.9747
882.8	0.97441
883	0.97431
883.2	0.97328
883.4	0.97312
883.6	0.97194
883.8	0.97112
884	0.97135
884.2	0.97057
884.4	0.96995
884.6	0.96975
884.8	0.96918
885	0.9687
885.2	0.96873
885.4	0.96868
885.6	0.96845
885.8	0.96781
886	0.9686
886.2	0.9686
886.4	0.96914
886.6	0.96961
886.8	0.96965
887	0.97034
887.2	0.97093
887.4	0.97121
887.6	0.97179
887.8	0.97262
888	0.97327
888.2	0.97345
888.4	0.97443
888.6	0.97474
888.8	0.97536
889	0.9755
889.2	0.97556
889.4	0.97564
889.6	0.97617
889.8	0.97645
890	0.97642
890.2	0.97577
890.4	0.97578
890.6	0.97565
890.8	0.97588
891	0.97509
891.2	0.9746
891.4	0.97392
891.6	0.97369
891.8	0.97293
892	0.9721
892.2	0.97187
892.4	0.97115
892.6	0.97129
892.8	0.97078
893	0.97023
893.2	0.97004
893.4	0.97014
893.6	0.96979
893.8	0.96978
894	0.97004
894.2	0.97026
894.4	0.96953
894.6	0.96958
894.8	0.97063
895	0.9708
895.2	0.97131
895.4	0.97203
895.6	0.97201
895.8	0.97256
896	0.97322
896.2	0.97389
896.4	0.97388
896.6	0.97487
896.8	0.97479
897	0.97495
897.2	0.97526
897.4	0.97503
897.6	0.97519
897.8	0.9751
898	0.97529
898.2	0.9749
898.4	0.97504
898.6	0.97464
898.8	0.97473
899	0.97414
899.2	0.97322
899.4	0.97358
899.6	0.97246
899.8	0.97131
900	0.97194
900.2	0.9711
900.4	0.97053
900.6	0.97054
900.8	0.97018
901	0.96999
901.2	0.96958
901.4	0.96944
901.6	0.9696
901.8	0.96899
902	0.96902
902.2	0.96939
902.4	0.96965
902.6	0.9699
902.8	0.9703
903	0.97057
903.2	0.97079
903.4	0.97112
903.6	0.97196
903.8	0.97237
904	0.97271
904.2	0.97304
904.4	0.97331
904.6	0.97448
904.8	0.97399
905	0.9747
905.2	0.97466
905.4	0.97445
905.6	0.97538
905.8	0.97536
906	0.97556
906.2	0.97512
906.4	0.97506
906.6	0.97494
906.8	0.97491
907	0.97395
907.2	0.97416
907.4	0.97351
907.6	0.9735
907.8	0.97319
908	0.9727
908.2	0.97245
908.4	0.97211
908.6	0.97196
908.8	0.97119
909	0.97099
909.2	0.97082
909.4	0.97051
909.6	0.97051
909.8	0.97037
910	0.97102
910.2	0.97029
910.4	0.97036
910.6	0.97077
910.8	0.97083
911	0.97142
911.2	0.97137
911.4	0.97183
911.6	0.97237
911.8	0.9728
912	0.97306
912.2	0.9733
912.4	0.97407
912.6	0.97414
912.8	0.97459
913	0.97494
913.2	0.97508
913.4	0.97549
913.6	0.97599
913.8	0.97585
914	0.9763
914.2	0.9758
914.4	0.97592
914.6	0.97587
914.8	0.9757
915	0.97522
915.2	0.9748
915.4	0.975
915.6	0.97463
915.8	0.97411
916	0.97385
916.2	0.97322
916.4	0.97303
916.6	0.97249
916.8	0.97215
917	0.97203
917.2	0.97178
917.4	0.97109
917.6	0.97078
917.8	0.97062
918	0.97067
918.2	0.97059
918.4	0.97081
918.6	0.97056
918.8	0.9706
919	0.97013
919.2	0.97049
919.4	0.97074
919.6	0.97112
919.8	0.97151
920	0.9718
920.2	0.97171
920.4	0.97212
920.6	0.97246
920.8	0.97273
921	0.97335
921.2	0.9736
921.4	0.97382
921.6	0.97401
921.8	0.97449
922	0.97402
922.2	0.97462
922.4	0.97454
922.6	0.9743
922.8	0.97363
923	0.9739
923.2	0.97384
923.4	0.97369
923.6	0.97397
923.8	0.97358
924	0.97299
924.2	0.97305
924.4	0.9727
924.6	0.97226
924.8	0.97145
925	0.97121
925.2	0.97115
925.4	0.97097
925.6	0.97028
925.8	0.97008
926	0.96983
926.2	0.97008
926.4	0.96973
926.6	0.96933
926.8	0.96978
927	0.96968
927.2	0.96964
927.4	0.96974
927.6	0.96989
927.8	0.96967
928	0.96988
928.2	0.97002
928.4	0.97042
928.6	0.97099
928.8	0.97073
929	0.97147
929.2	0.97133
929.4	0.97184
929.6	0.97235
929.8	0.97234
930	0.97259
930.2	0.97266
930.4	0.97301
930.6	0.97244
930.8	0.9726
931	0.97237
931.2	0.97249
931.4	0.97296
931.6	0.97349
931.8	0.97222
932	0.97221
932.2	0.97198
932.4	0.9723
932.6	0.97185
932.8	0.97161
933	0.97141
933.2	0.97103
933.4	0.97092
933.6	0.97068
933.8	0.96984
934	0.96995
934.2	0.96939
934.4	0.96954
934.6	0.96873
934.8	0.96911
935	0.96887
935.2	0.96896
935.4	0.96895
935.6	0.96945
935.8	0.96917
936	0.96946
936.2	0.96968
936.4	0.96971
936.6	0.96968
936.8	0.96967
937	0.97005
937.2	0.97051
937.4	0.97059
937.6	0.97141
937.8	0.971
938	0.97132
938.2	0.97215
938.4	0.97264
938.6	0.97215
938.8	0.97289
939	0.97261
939.2	0.97296
939.4	0.97282
939.6	0.97288
939.8	0.973
940	0.97302
940.2	0.97338
940.4	0.97233
940.6	0.97209
940.8	0.97191
941	0.97158
941.2	0.97127
941.4	0.97106
941.6	0.97092
941.8	0.97065
942	0.97008
942.2	0.97073
942.4	0.96965
942.6	0.96991
942.8	0.96892
943	0.96941
943.2	0.96903
943.4	0.96853
943.6	0.96872
943.8	0.96872
944	0.96884
944.2	0.96873
944.4	0.96862
944.6	0.96917
944.8	0.96871
945	0.96935
945.2	0.96953
945.4	0.97006
945.6	0.97034
945.8	0.97091
946	0.9707
946.2	0.97126
946.4	0.97166
946.6	0.97167
946.8	0.97215
947	0.97232
947.2	0.97277
947.4	0.97281
947.6	0.97283
947.8	0.97366
948	0.97264
948.2	0.97262
948.4	0.97325
948.6	0.97296
948.8	0.97306
949	0.97322
949.2	0.97259
949.4	0.97194
949.6	0.97214
949.8	0.97172
950	0.97191
950.2	0.97147
950.4	0.97065
950.6	0.97078
950.8	0.97027
951	0.96979
951.2	0.96929
951.4	0.96978
951.6	0.96935
951.8	0.96856
952	0.96828
952.2	0.96767
952.4	0.96828
952.6	0.96799
952.8	0.96786
953	0.96787
953.2	0.96825
953.4	0.96773
953.6	0.96812
953.8	0.96783
954	0.96837
954.2	0.9689
954.4	0.969
954.6	0.96935
954.8	0.96978
955	0.96994
955.2	0.97083
955.4	0.97104
955.6	0.97141
955.8	0.97113
956	0.97195
956.2	0.97188
956.4	0.97242
956.6	0.9724
956.8	0.9729
957	0.97319
957.2	0.97302
957.4	0.97257
957.6	0.97315
957.8	0.97275
958	0.97294
958.2	0.97309
958.4	0.97241
958.6	0.97241
958.8	0.97214
959	0.972
959.2	0.97156
959.4	0.97073
959.6	0.97066
959.8	0.97091
960	0.97049
960.2	0.97016
960.4	0.96936
960.6	0.96952
960.8	0.96859
961	0.96855
961.2	0.9675
961.4	0.96763
961.6	0.96814
961.8	0.96748
962	0.96749
962.2	0.96723
962.4	0.96778
962.6	0.96738
962.8	0.9673
963	0.96726
963.2	0.96794
963.4	0.9678
963.6	0.96771
963.8	0.96837
964	0.96845
964.2	0.96868
964.4	0.96845
964.6	0.96908
964.8	0.9693
965	0.96967
965.2	0.96988
965.4	0.97007
965.6	0.97005
965.8	0.97063
966	0.971
966.2	0.97066
966.4	0.97098
966.6	0.9713
966.8	0.97094
967	0.97139
967.2	0.97135
967.4	0.97085
967.6	0.97082
967.8	0.97074
968	0.97075
968.2	0.97014
968.4	0.96998
968.6	0.96996
968.8	0.96953
969	0.96931
969.2	0.96935
969.4	0.96901
969.6	0.96897
969.8	0.9681
970	0.96815
970.2	0.96794
970.4	0.96747
970.6	0.96747
970.8	0.96712
971	0.96716
971.2	0.96732
971.4	0.96692
971.6	0.9671
971.8	0.96746
972	0.96736
972.2	0.96758
972.4	0.96752
972.6	0.96776
972.8	0.96759
973	0.96805
973.2	0.9684
973.4	0.96856
973.6	0.96883
973.8	0.96949
974	0.9696
974.2	0.9704
974.4	0.9699
974.6	0.97061
974.8	0.97067
975	0.97055
975.2	0.97106
975.4	0.9712
975.6	0.97131
975.8	0.97124
976	0.9714
976.2	0.97166
976.4	0.97147
976.6	0.97135
976.8	0.97071
977	0.97067
977.2	0.9708
977.4	0.97062
977.6	0.96994
977.8	0.96985
978	0.96935
978.2	0.96933
978.4	0.96901
978.6	0.96844
978.8	0.96823
979	0.9678
979.2	0.96763
979.4	0.96731
979.6	0.96719
979.8	0.96667
980	0.96683
980.2	0.96607
980.4	0.96597
980.6	0.96567
980.8	0.96563
981	0.96584
981.2	0.96586
981.4	0.96541
981.6	0.96544
981.8	0.96541
982	0.96526
982.2	0.96568
982.4	0.96602
982.6	0.96635
982.8	0.96649
983	0.96685
983.2	0.96697
983.4	0.96699
983.6	0.96752
983.8	0.96789
984	0.96819
984.2	0.96821
984.4	0.96835
984.6	0.96883
984.8	0.96894
985	0.96914
985.2	0.96935
985.4	0.96926
985.6	0.96974
985.8	0.9698
986	0.97008
986.2	0.96974
986.4	0.96999
986.6	0.96962
986.8	0.96976
987	0.96879
987.2	0.96912
987.4	0.96839
987.6	0.96866
987.8	0.96842
988	0.96827
988.2	0.96786
988.4	0.96779
988.6	0.96694
988.8	0.96666
989	0.96625
989.2	0.96593
989.4	0.96633
989.6	0.96588
989.8	0.96572
990	0.96532
990.2	0.96568
990.4	0.96549
990.6	0.96505
990.8	0.96531
991	0.96492
991.2	0.96505
991.4	0.96514
991.6	0.96543
991.8	0.96505
992	0.96536
992.2	0.96554
992.4	0.96537
992.6	0.96675
992.8	0.96642
993	0.96606
993.2	0.96703
993.4	0.96696
993.6	0.9672
993.8	0.96716
994	0.96743
994.2	0.96783
994.4	0.9676
994.6	0.96846
994.8	0.96795
995	0.96846
995.2	0.96873
995.4	0.96857
995.6	0.96794
995.8	0.96855
996	0.96856
996.2	0.96847
996.4	0.96835
996.6	0.96834
996.8	0.96831
997	0.9683
997.2	0.96766
997.4	0.96755
997.6	0.96691
997.8	0.96715
998	0.9672
998.2	0.96612
998.4	0.9659
998.6	0.96597
998.8	0.96616
999	0.96517
999.2	0.96539
999.4	0.96467
999.6	0.96452
999.8	0.96381
1000	0.96425
1000.2	0.96448
1000.4	0.96348
1000.6	0.96302
1000.8	0.96345
1001	0.96303
1001.2	0.96318
1001.4	0.96317
1001.6	0.9637
1001.8	0.96371
1002	0.96317
1002.2	0.96381
1002.4	0.96395
1002.6	0.96407
1002.8	0.96411
1003	0.96468
1003.2	0.96452
1003.4	0.96456
1003.6	0.96514
1003.8	0.96499
1004	0.96493
1004.2	0.96514
1004.4	0.9659
1004.6	0.96534
1004.8	0.96594
1005	0.96579
1005.2	0.96634
1005.4	0.96645
1005.6	0.96599
1005.8	0.96642
1006	0.96647
1006.2	0.96581
1006.4	0.96566
1006.6	0.96655
1006.8	0.9662
1007	0.9663
1007.2	0.96578
1007.4	0.96587
1007.6	0.96526
1007.8	0.96517
1008	0.96503
1008.2	0.96425
1008.4	0.96446
1008.6	0.96405
1008.8	0.96356
1009	0.96383
1009.2	0.96322
1009.4	0.96311
1009.6	0.96284
1009.8	0.96286
1010	0.96283
1010.2	0.96249
1010.4	0.96253
1010.6	0.96259
1010.8	0.96248
1011	0.96248
1011.2	0.96209
1011.4	0.96261
1011.6	0.96251
1011.8	0.96271
1012	0.96265
1012.2	0.96255
1012.4	0.96242
1012.6	0.96239
1012.8	0.9628
1013	0.96319
1013.2	0.96405
1013.4	0.96324
1013.6	0.9642
1013.8	0.96415
1014	0.96377
1014.2	0.96441
1014.4	0.96485
1014.6	0.96447
1014.8	0.96507
1015	0.96555
1015.2	0.96512
1015.4	0.96589
1015.6	0.96577
1015.8	0.9656
1016	0.96518
1016.2	0.96526
1016.4	0.96511
1016.6	0.96574
1016.8	0.96471
1017	0.96477
1017.2	0.96528
1017.4	0.96425
1017.6	0.96375
1017.8	0.96412
1018	0.96303
1018.2	0.9632
1018.4	0.96322
1018.6	0.96307
1018.8	0.96248
1019	0.96287
1019.2	0.96158
1019.4	0.96251
1019.6	0.9618
1019.8	0.96165
1020	0.96148
1020.2	0.96098
1020.4	0.96159
1020.6	0.95977
1020.8	0.9605
1021	0.96017
1021.2	0.9605
1021.4	0.96052
1021.6	0.96069
1021.8	0.9599
1022	0.96023
1022.2	0.96079
1022.4	0.96063
1022.6	0.96057
1022.8	0.96187
1023	0.9616
1023.2	0.96095
1023.4	0.96143
1023.6	0.96147
1023.8	0.96173
1024	0.96162
1024.2	0.96243
1024.4	0.9631
1024.6	0.96226
1024.8	0.96258
1025	0.96331
1025.2	0.9635
1025.4	0.96314
1025.6	0.96407
1025.8	0.96338
1026	0.9635
1026.2	0.9644
1026.4	0.96521
1026.6	0.96436
1026.8	0.96501
1027	0.96373
1027.2	0.96409
1027.4	0.9642
1027.6	0.96423
1027.8	0.96379
1028	0.9629
1028.2	0.9636
1028.4	0.96255
1028.6	0.9626
1028.8	0.96236
1029	0.96219
1029.2	0.96272
1029.4	0.96231
1029.6	0.96217
1029.8	0.96233
1030	0.96093
1030.2	0.96102
1030.4	0.96152
1030.6	0.96158
1030.8	0.96137
1031	0.96092
1031.2	0.96164
1031.4	0.9608
1031.6	0.96155
1031.8	0.9603
1032	0.96065
1032.2	0.96131
1032.4	0.96059
1032.6	0.96151
1032.8	0.96108
1033	0.96168
1033.2	0.96222
1033.4	0.96222
1033.6	0.96279
1033.8	0.96244
1034	0.96306
1034.2	0.96295
1034.4	0.96278
1034.6	0.9625
1034.8	0.96274
1035	0.96261
1035.2	0.96309
1035.4	0.96393
1035.6	0.96306
1035.8	0.96297
1036	0.96443
1036.2	0.96396
1036.4	0.96434
1036.6	0.96372
1036.8	0.96284
1037	0.96402
1037.2	0.96516
1037.4	0.96398
1037.6	0.96449
1037.8	0.96365
1038	0.96298
1038.2	0.96323
1038.4	0.96288
1038.6	0.96158
1038.8	0.96341
1039	0.96167
1039.2	0.96229
1039.4	0.96166
1039.6	0.962
1039.8	0.96125
1040	0.96139
1040.2	0.96051
1040.4	0.96087
1040.6	0.96079
1040.8	0.96046
1041	0.96038
1041.2	0.95985
1041.4	0.96055
1041.6	0.96019
1041.8	0.95939
1042	0.96093
1042.2	0.95881
1042.4	0.96001
1042.6	0.95871
1042.8	0.95951
1043	0.96105
1043.2	0.96038
1043.4	0.95986
1043.6	0.95967
1043.8	0.95998
1044	0.96026
1044.2	0.9593
1044.4	0.95996
1044.6	0.96013
1044.8	0.95986
1045	0.96021
1045.2	0.95958
1045.4	0.96125
1045.6	0.9601
1045.8	0.9613
1046	0.96111
1046.2	0.96161
1046.4	0.96172
1046.6	0.96242
1046.8	0.96163
1047	0.96175
1047.2	0.96228
1047.4	0.96171
1047.6	0.96257
1047.8	0.96202
1048	0.96199
1048.2	0.96252
1048.4	0.96085
1048.6	0.96087
1048.8	0.96057
1049	0.96064
1049.2	0.96102
1049.4	0.96144
1049.6	0.96114
1049.8	0.96029
1050	0.96029
1050.2	0.96019
1050.4	0.95865
1050.6	0.95869
1050.8	0.95774
1051	0.95933
1051.2	0.95881
1051.4	0.95959
1051.6	0.9581
1051.8	0.95822
1052	0.95857
1052.2	0.9579
1052.4	0.95713
1052.6	0.9576
1052.8	0.95605
1053	0.95605
1053.2	0.95669
1053.4	0.95767
1053.6	0.95732
1053.8	0.95679
1054	0.9573
1054.2	0.9581
1054.4	0.95775
1054.6	0.9576
1054.8	0.95889
1055	0.95736
1055.2	0.95857
1055.4	0.95877
1055.6	0.96003
1055.8	0.9583
1056	0.95822
1056.2	0.95963
1056.4	0.95893
1056.6	0.95877
1056.8	0.96021
1057	0.95893
1057.2	0.96055
1057.4	0.96107
1057.6	0.96151
1057.8	0.96273
1058	0.96212
1058.2	0.96096
1058.4	0.96262
1058.6	0.96287
1058.8	0.96328
1059	0.96261
1059.2	0.9632
1059.4	0.96233
1059.6	0.96322
1059.8	0.96346
1060	0.96393
1060.2	0.96292
1060.4	0.96383
1060.6	0.96339
1060.8	0.96357
1061	0.96362
1061.2	0.96285
1061.4	0.96364
1061.6	0.96419
1061.8	0.9631
1062	0.96235
1062.2	0.96183
1062.4	0.96149
1062.6	0.96187
1062.8	0.96097
1063	0.96108
1063.2	0.9616
1063.4	0.9617
1063.6	0.96137
1063.8	0.95956
1064	0.96139
1064.2	0.9612
1064.4	0.96053
1064.6	0.96034
1064.8	0.96093
1065	0.96089
1065.2	0.95888
1065.4	0.96041
1065.6	0.95922
1065.8	0.95955
1066	0.95869
1066.2	0.95965
1066.4	0.95813
1066.6	0.95989
1066.8	0.96044
1067	0.96086
1067.2	0.95996
1067.4	0.95946
1067.6	0.96075
1067.8	0.96001
1068	0.96106
1068.2	0.96165
1068.4	0.9607
1068.6	0.96015
1068.8	0.96204
1069	0.96238
1069.2	0.96072
1069.4	0.96285
1069.6	0.96139
1069.8	0.96048
1070	0.96083
1070.2	0.9604
1070.4	0.96027
1070.6	0.96103
1070.8	0.96153
1071	0.96167
1071.2	0.96141
1071.4	0.96124
1071.6	0.95857
1071.8	0.96106
1072	0.95992
1072.2	0.95875
1072.4	0.95854
1072.6	0.95956
1072.8	0.95778
1073	0.95808
1073.2	0.95738
1073.4	0.95975
1073.6	0.95574
1073.8	0.95726
1074	0.95899
1074.2	0.95746
1074.4	0.95649
1074.6	0.95519
1074.8	0.95663
1075	0.95665
1075.2	0.95517
1075.4	0.9554
1075.6	0.95591
1075.8	0.95678
1076	0.95482
1076.2	0.95696
1076.4	0.95448
1076.6	0.9551
1076.8	0.95572
1077	0.95562
1077.2	0.95587
1077.4	0.95557
1077.6	0.95432
1077.8	0.95556
1078	0.95559
1078.2	0.95546
1078.4	0.95415
1078.6	0.955
1078.8	0.95662
1079	0.95631
1079.2	0.95504
1079.4	0.95633
1079.6	0.9567
1079.8	0.95577
1080	0.95496
1080.2	0.95539
1080.4	0.95668
1080.6	0.95581
1080.8	0.95718
1081	0.95505
1081.2	0.9554
1081.4	0.95709
1081.6	0.95561
1081.8	0.95649
1082	0.95794
1082.2	0.9567
1082.4	0.95776
1082.6	0.95713
1082.8	0.95858
1083	0.9569
1083.2	0.95722
1083.4	0.95667
1083.6	0.9573
1083.8	0.95746
1084	0.959
1084.2	0.9561
1084.4	0.95673
1084.6	0.95905
1084.8	0.95661
1085	0.95726
1085.2	0.95746
1085.4	0.95842
1085.6	0.95636
1085.8	0.9568
1086	0.95607
1086.2	0.95739
1086.4	0.95622
1086.6	0.95832
1086.8	0.95497
1087	0.95676
1087.2	0.95602
1087.4	0.95776
1087.6	0.95694
1087.8	0.95651
1088	0.95576
1088.2	0.95561
1088.4	0.95606
1088.6	0.95534
1088.8	0.95698
1089	0.95614
1089.2	0.95605
1089.4	0.95706
1089.6	0.95722
1089.8	0.95647
1090	0.95532
1090.2	0.95641
1090.4	0.95693
1090.6	0.95819
1090.8	0.95921
1091	0.95909
1091.2	0.95778
1091.4	0.95762
1091.6	0.95825
1091.8	0.95753
1092	0.95828
1092.2	0.95825
1092.4	0.95712
1092.6	0.95715
1092.8	0.95813
1093	0.95785
1093.2	0.95763
1093.4	0.95927
1093.6	0.95802
1093.8	0.95784
1094	0.9592
1094.2	0.95914
1094.4	0.959
1094.6	0.95774
1094.8	0.95837
1095	0.95794
1095.2	0.95918
1095.4	0.95837
1095.6	0.95821
1095.8	0.9582
1096	0.95859
1096.2	0.95906
1096.4	0.95752
1096.6	0.96054
1096.8	0.95597
1097	0.95742
1097.2	0.95768
1097.4	0.95796
1097.6	0.95695
1097.8	0.95937
1098	0.96009
1098.2	0.95952
1098.4	0.95891
1098.6	0.96081
1098.8	0.95771
1099	0.95997
1099.2	0.95741
1099.4	0.95771
1099.6	0.95679
1099.8	0.95782
1100	0.95965
1100.2	0.95776
1100.4	0.95855
1100.6	0.95902
1100.8	0.96079
1101	0.95937
1101.2	0.96001
1101.4	0.96198
1101.6	0.95921
1101.8	0.9604
1102	0.95882
1102.2	0.96521
1102.4	0.96089
1102.6	0.9628
1102.8	0.96079
1103	0.96327
1103.2	0.96058
1103.4	0.96394
1103.6	0.96192
1103.8	0.96231
1104	0.96244
1104.2	0.96376
1104.4	0.96626
1104.6	0.96382
1104.8	0.96511
1105	0.96322
1105.2	0.9617
1105.4	0.96284
1105.6	0.96574
1105.8	0.96206
1106	0.96513
1106.2	0.96404
1106.4	0.96136
1106.6	0.96201
1106.8	0.9638
1107	0.9602
1107.2	0.96243
1107.4	0.96256
1107.6	0.96537
1107.8	0.96067
1108	0.9625
1108.2	0.95976
1108.4	0.96136
1108.6	0.96425
1108.8	0.95859
1109	0.963
1109.2	0.95866
1109.4	0.96191
1109.6	0.96069
1109.8	0.96085
1110	0.96089
1110.2	0.96023
1110.4	0.95633
1110.6	0.95868
1110.8	0.95901
1111	0.96101
1111.2	0.95792
1111.4	0.95645
1111.6	0.95877
1111.8	0.96218
1112	0.95857
1112.2	0.96195
1112.4	0.96073
1112.6	0.95955
1112.8	0.95948
1113	0.95949
1113.2	0.96217
1113.4	0.96157
1113.6	0.96377
1113.8	0.95948
1114	0.95831
1114.2	0.95934
1114.4	0.96029
1114.6	0.96037
1114.8	0.95889
1115	0.95888
1115.2	0.96299
1115.4	0.96137
1115.6	0.96242
1115.8	0.957
1116	0.96194
1116.2	0.96054
1116.4	0.96176
1116.6	0.95822
1116.8	0.96046
1117	0.96089
1117.2	0.96152
1117.4	0.96562
1117.6	0.96265
1117.8	0.96237
1118	0.96434
1118.2	0.96153
1118.4	0.95824
1118.6	0.95445
1118.8	0.96112
1119	0.96604
1119.2	0.95877
1119.4	0.95893
1119.6	0.96037
1119.8	0.96055
1120	0.95735
1120.2	0.95442
1120.4	0.9587
1120.6	0.95997
1120.8	0.95618
1121	0.95819
1121.2	0.95673
1121.4	0.95487
1121.6	0.95846
1121.8	0.9578
1122	0.95676
1122.2	0.95558
1122.4	0.95786
1122.6	0.95814
1122.8	0.95363
1123	0.95941
1123.2	0.95254
1123.4	0.95017
1123.6	0.95294
1123.8	0.95216
1124	0.95344
1124.2	0.95372
1124.4	0.95598
1124.6	0.95368
1124.8	0.95388
1125	0.9486
1125.2	0.94851
1125.4	0.94842
1125.6	0.94833
1125.8	0.94824
1126	0.94815
1126.2	0.94806
1126.4	0.94797
1126.6	0.94788
1126.8	0.94779
1127	0.9477
1127.2	0.94761
1127.4	0.94752
1127.6	0.94744
1127.8	0.94735
1128	0.94726
1128.2	0.94717
1128.4	0.94708
1128.6	0.94699
1128.8	0.9469
1129	0.94681
1129.2	0.94672
1129.4	0.94663
1129.6	0.94654
1129.8	0.94645
1130	0.94636
1130.2	0.94647
1130.4	0.94657
1130.6	0.94668
1130.8	0.94678
1131	0.94689
1131.2	0.947
1131.4	0.9471
1131.6	0.94721
1131.8	0.94731
1132	0.94742
1132.2	0.94753
1132.4	0.94763
1132.6	0.94774
1132.8	0.94784
1133	0.94795
1133.2	0.94806
1133.4	0.94816
1133.6	0.94827
1133.8	0.94837
1134	0.94848
1134.2	0.94859
1134.4	0.94869
1134.6	0.9488
1134.8	0.9489
1135	0.94901
1135.2	0.94904
1135.4	0.94907
1135.6	0.9491
1135.8	0.94913
1136	0.94916
1136.2	0.94919
1136.4	0.94922
1136.6	0.94925
1136.8	0.94927
1137	0.9493
1137.2	0.94933
1137.4	0.94936
1137.6	0.94939
1137.8	0.94942
1138	0.94945
1138.2	0.94948
1138.4	0.94951
1138.6	0.94954
1138.8	0.94957
1139	0.9496
1139.2	0.94963
1139.4	0.94966
1139.6	0.94969
1139.8	0.94972
1140	0.94975
1140.2	0.95006
1140.4	0.95037
1140.6	0.95068
1140.8	0.951
1141	0.95131
1141.2	0.95162
1141.4	0.95193
1141.6	0.95224
1141.8	0.95256
1142	0.95287
1142.2	0.95318
1142.4	0.95349
1142.6	0.9538
1142.8	0.95412
1143	0.95443
1143.2	0.95474
1143.4	0.95505
1143.6	0.95536
1143.8	0.95568
1144	0.95599
1144.2	0.9563
1144.4	0.95661
1144.6	0.95692
1144.8	0.95724
1145	0.95755
1145.2	0.95749
1145.4	0.95743
1145.6	0.95736
1145.8	0.9573
1146	0.95724
1146.2	0.95718
1146.4	0.95712
1146.6	0.95706
1146.8	0.957
1147	0.95694
1147.2	0.95688
1147.4	0.95682
1147.6	0.95675
1147.8	0.95669
1148	0.95663
1148.2	0.95657
1148.4	0.95651
1148.6	0.95645
1148.8	0.95639
1149	0.95633
1149.2	0.95627
1149.4	0.95621
1149.6	0.95614
1149.8	0.95608
1150	0.95602
1150.2	0.95603
1150.4	0.95604
1150.6	0.95604
1150.8	0.95605
1151	0.95605
1151.2	0.95606
1151.4	0.95607
1151.6	0.95607
1151.8	0.95608
1152	0.95608
1152.2	0.95609
1152.4	0.9561
1152.6	0.9561
1152.8	0.95611
1153	0.95611
1153.2	0.95612
1153.4	0.95613
1153.6	0.95613
1153.8	0.95614
1154	0.95614
1154.2	0.95615
1154.4	0.95616
1154.6	0.95616
1154.8	0.95617
1155	0.95617
1155.2	0.95624
1155.4	0.95631
1155.6	0.95638
1155.8	0.95645
1156	0.95652
1156.2	0.95659
1156.4	0.95666
1156.6	0.95673
1156.8	0.9568
1157	0.95687
1157.2	0.95694
1157.4	0.95701
1157.6	0.95708
1157.8	0.95715
1158	0.95722
1158.2	0.95729
1158.4	0.95736
1158.6	0.95743
1158.8	0.9575
1159	0.95757
1159.2	0.95764
1159.4	0.95771
1159.6	0.95778
1159.8	0.95785
1160	0.95792
1160.2	0.95769
1160.4	0.95746
1160.6	0.95723
1160.8	0.957
1161	0.95677
1161.2	0.95654
1161.4	0.95631
1161.6	0.95608
1161.8	0.95585
1162	0.95562
1162.2	0.95539
1162.4	0.95516
1162.6	0.95493
1162.8	0.9547
1163	0.95447
1163.2	0.95424
1163.4	0.95401
1163.6	0.95378
1163.8	0.95355
1164	0.95332
1164.2	0.95309
1164.4	0.95286
1164.6	0.95263
1164.8	0.9524
1165	0.95217
1165.2	0.95235
1165.4	0.95252
1165.6	0.95269
1165.8	0.95286
1166	0.95303
1166.2	0.95321
1166.4	0.95338
1166.6	0.95355
1166.8	0.95372
1167	0.95389
1167.2	0.95407
1167.4	0.95424
1167.6	0.95441
1167.8	0.95458
1168	0.95475
1168.2	0.95492
1168.4	0.9551
1168.6	0.95527
1168.8	0.95544
1169	0.95561
1169.2	0.95578
1169.4	0.95596
1169.6	0.95613
1169.8	0.9563
1170	0.95647
1170.2	0.95651
1170.4	0.95654
1170.6	0.95657
1170.8	0.9566
1171	0.95664
1171.2	0.95667
1171.4	0.9567
1171.6	0.95674
1171.8	0.95677
1172	0.9568
1172.2	0.95684
1172.4	0.95687
1172.6	0.9569
1172.8	0.95694
1173	0.95697
1173.2	0.957
1173.4	0.95704
1173.6	0.95707
1173.8	0.9571
1174	0.95714
1174.2	0.95717
1174.4	0.9572
1174.6	0.95724
1174.8	0.95727
1175	0.9573
1175.2	0.95729
1175.4	0.95728
1175.6	0.95727
1175.8	0.95726
1176	0.95725
1176.2	0.95723
1176.4	0.95722
1176.6	0.95721
1176.8	0.9572
1177	0.95719
1177.2	0.95718
1177.4	0.95716
1177.6	0.95715
1177.8	0.95714
1178	0.95713
1178.2	0.95712
1178.4	0.95711
1178.6	0.9571
1178.8	0.95708
1179	0.95707
1179.2	0.95706
1179.4	0.95705
1179.6	0.95704
1179.8	0.95703
1180	0.95701
1180.2	0.95711
1180.4	0.95721
1180.6	0.95731
1180.8	0.95741
1181	0.95751
1181.2	0.95761
1181.4	0.95771
1181.6	0.95781
1181.8	0.95791
1182	0.958
1182.2	0.9581
1182.4	0.9582
1182.6	0.9583
1182.8	0.9584
1183	0.9585
1183.2	0.9586
1183.4	0.9587
1183.6	0.9588
1183.8	0.9589
1184	0.95899
1184.2	0.95909
1184.4	0.95919
1184.6	0.95929
1184.8	0.95939
1185	0.95949
1185.2	0.95933
1185.4	0.95917
1185.6	0.95901
1185.8	0.95885
1186	0.9587
1186.2	0.95854
1186.4	0.95838
1186.6	0.95822
1186.8	0.95806
1187	0.9579
1187.2	0.95774
1187.4	0.95759
1187.6	0.95743
1187.8	0.95727
1188	0.95711
1188.2	0.95695
1188.4	0.95679
1188.6	0.95663
1188.8	0.95647
1189	0.95632
1189.2	0.95616
1189.4	0.956
1189.6	0.95584
1189.8	0.95568
1190	0.95552
1190.2	0.95544
1190.4	0.95535
1190.6	0.95526
1190.8	0.95517
1191	0.95509
1191.2	0.955
1191.4	0.95491
1191.6	0.95482
1191.8	0.95473
1192	0.95465
1192.2	0.95456
1192.4	0.95447
1192.6	0.95438
1192.8	0.9543
1193	0.95421
1193.2	0.95412
1193.4	0.95403
1193.6	0.95395
1193.8	0.95386
1194	0.95377
1194.2	0.95368
1194.4	0.9536
1194.6	0.95351
1194.8	0.95342
1195	0.95333
1195.2	0.95356
1195.4	0.95379
1195.6	0.95401
1195.8	0.95424
1196	0.95447
1196.2	0.95469
1196.4	0.95492
1196.6	0.95515
1196.8	0.95537
1197	0.9556
1197.2	0.95583
1197.4	0.95605
1197.6	0.95628
1197.8	0.95651
1198	0.95673
1198.2	0.95696
1198.4	0.95719
1198.6	0.95741
1198.8	0.95764
1199	0.95787
1199.2	0.95809
1199.4	0.95832
1199.6	0.95854
1199.8	0.95877
1200	0.959
1200.2	0.95898
1200.4	0.95896
1200.6	0.95895
1200.8	0.95893
1201	0.95891
1201.2	0.95889
1201.4	0.95888
1201.6	0.95886
1201.8	0.95884
1202	0.95882
1202.2	0.95881
1202.4	0.95879
1202.6	0.95877
1202.8	0.95875
1203	0.95874
1203.2	0.95872
1203.4	0.9587
1203.6	0.95868
1203.8	0.95867
1204	0.95865
1204.2	0.95863
1204.4	0.95861
1204.6	0.9586
1204.8	0.95858
1205	0.95856
1205.2	0.95852
1205.4	0.95849
1205.6	0.95845
1205.8	0.95841
1206	0.95838
1206.2	0.95834
1206.4	0.9583
1206.6	0.95826
1206.8	0.95823
1207	0.95819
1207.2	0.95815
1207.4	0.95812
1207.6	0.95808
1207.8	0.95804
1208	0.958
1208.2	0.95797
1208.4	0.95793
1208.6	0.95789
1208.8	0.95786
1209	0.95782
1209.2	0.95778
1209.4	0.95775
1209.6	0.95771
1209.8	0.95767
1210	0.95763
1210.2	0.95777
1210.4	0.9579
1210.6	0.95803
1210.8	0.95817
1211	0.9583
1211.2	0.95843
1211.4	0.95856
1211.6	0.9587
1211.8	0.95883
1212	0.95896
1212.2	0.95909
1212.4	0.95923
1212.6	0.95936
1212.8	0.95949
1213	0.95963
1213.2	0.95976
1213.4	0.95989
1213.6	0.96002
1213.8	0.96016
1214	0.96029
1214.2	0.96042
1214.4	0.96056
1214.6	0.96069
1214.8	0.96082
1215	0.96095
1215.2	0.96084
1215.4	0.96072
1215.6	0.96061
1215.8	0.9605
1216	0.96038
1216.2	0.96027
1216.4	0.96015
1216.6	0.96004
1216.8	0.95992
1217	0.95981
1217.2	0.95969
1217.4	0.95958
1217.6	0.95946
1217.8	0.95935
1218	0.95923
1218.2	0.95912
1218.4	0.95901
1218.6	0.95889
1218.8	0.95878
1219	0.95866
1219.2	0.95855
1219.4	0.95843
1219.6	0.95832
1219.8	0.9582
1220	0.95809
1220.2	0.95809
1220.4	0.95809
1220.6	0.95808
1220.8	0.95808
1221	0.95808
1221.2	0.95808
1221.4	0.95808
1221.6	0.95808
1221.8	0.95808
1222	0.95808
1222.2	0.95808
1222.4	0.95807
1222.6	0.95807
1222.8	0.95807
1223	0.95807
1223.2	0.95807
1223.4	0.95807
1223.6	0.95807
1223.8	0.95807
1224	0.95807
1224.2	0.95806
1224.4	0.95806
1224.6	0.95806
1224.8	0.95806
1225	0.95806
1225.2	0.95818
1225.4	0.9583
1225.6	0.95842
1225.8	0.95854
1226	0.95866
1226.2	0.95878
1226.4	0.9589
1226.6	0.95902
1226.8	0.95914
1227	0.95927
1227.2	0.95939
1227.4	0.95951
1227.6	0.95963
1227.8	0.95975
1228	0.95987
1228.2	0.95999
1228.4	0.96011
1228.6	0.96023
1228.8	0.96035
1229	0.96047
1229.2	0.96059
1229.4	0.96071
1229.6	0.96083
1229.8	0.96095
1230	0.96107
1230.2	0.96092
1230.4	0.96077
1230.6	0.96063
1230.8	0.96048
1231	0.96033
1231.2	0.96018
1231.4	0.96003
1231.6	0.95988
1231.8	0.95973
1232	0.95958
1232.2	0.95943
1232.4	0.95928
1232.6	0.95913
1232.8	0.95899
1233	0.95884
1233.2	0.95869
1233.4	0.95854
1233.6	0.95839
1233.8	0.95824
1234	0.95809
1234.2	0.95794
1234.4	0.95779
1234.6	0.95764
1234.8	0.95749
1235	0.95735
1235.2	0.95726
1235.4	0.95717
1235.6	0.95708
1235.8	0.95699
1236	0.9569
1236.2	0.95681
1236.4	0.95672
1236.6	0.95663
1236.8	0.95655
1237	0.95646
1237.2	0.95637
1237.4	0.95628
1237.6	0.95619
1237.8	0.9561
1238	0.95601
1238.2	0.95592
1238.4	0.95584
1238.6	0.95575
1238.8	0.95566
1239	0.95557
1239.2	0.95548
1239.4	0.95539
1239.6	0.9553
1239.8	0.95521
1240	0.95513
1240.2	0.95538
1240.4	0.95564
1240.6	0.9559
1240.8	0.95615
1241	0.95641
1241.2	0.95667
1241.4	0.95693
1241.6	0.95718
1241.8	0.95744
1242	0.9577
1242.2	0.95795
1242.4	0.95821
1242.6	0.95847
1242.8	0.95872
1243	0.95898
1243.2	0.95924
1243.4	0.9595
1243.6	0.95975
1243.8	0.96001
1244	0.96027
1244.2	0.96052
1244.4	0.96078
1244.6	0.96104
1244.8	0.96129
1245	0.96155
1245.2	0.9615
1245.4	0.96144
1245.6	0.96138
1245.8	0.96133
1246	0.96127
1246.2	0.96122
1246.4	0.96116
1246.6	0.9611
1246.8	0.96105
1247	0.96099
1247.2	0.96094
1247.4	0.96088
1247.6	0.96082
1247.8	0.96077
1248	0.96071
1248.2	0.96066
1248.4	0.9606
1248.6	0.96054
1248.8	0.96049
1249	0.96043
1249.2	0.96038
1249.4	0.96032
1249.6	0.96026
1249.8	0.96021
1250	0.96015
1250.2	0.96004
1250.4	0.95992
1250.6	0.9598
1250.8	0.95968
1251	0.95957
1251.2	0.95945
1251.4	0.95933
1251.6	0.95921
1251.8	0.9591
1252	0.95898
1252.2	0.95886
1252.4	0.95874
1252.6	0.95863
1252.8	0.95851
1253	0.95839
1253.2	0.95827
1253.4	0.95816
1253.6	0.95804
1253.8	0.95792
1254	0.9578
1254.2	0.95769
1254.4	0.95757
1254.6	0.95745
1254.8	0.95733
1255	0.95722
1255.2	0.95747
1255.4	0.95773
1255.6	0.95799
1255.8	0.95825
1256	0.9585
1256.2	0.95876
1256.4	0.95902
1256.6	0.95928
1256.8	0.95954
1257	0.95979
1257.2	0.96005
1257.4	0.96031
1257.6	0.96057
1257.8	0.96082
1258	0.96108
1258.2	0.96134
1258.4	0.9616
1258.6	0.96185
1258.8	0.96211
1259	0.96237
1259.2	0.96263
1259.4	0.96288
1259.6	0.96314
1259.8	0.9634
1260	0.96366
1260.2	0.96359
1260.4	0.96352
1260.6	0.96344
1260.8	0.96337
1261	0.9633
1261.2	0.96323
1261.4	0.96316
1261.6	0.96309
1261.8	0.96302
1262	0.96295
1262.2	0.96288
1262.4	0.96281
1262.6	0.96274
1262.8	0.96267
1263	0.9626
1263.2	0.96253
1263.4	0.96246
1263.6	0.96238
1263.8	0.96231
1264	0.96224
1264.2	0.96217
1264.4	0.9621
1264.6	0.96203
1264.8	0.96196
1265	0.96189
1265.2	0.96184
1265.4	0.96179
1265.6	0.96174
1265.8	0.96169
1266	0.96164
1266.2	0.96158
1266.4	0.96153
1266.6	0.96148
1266.8	0.96143
1267	0.96138
1267.2	0.96133
1267.4	0.96128
1267.6	0.96123
1267.8	0.96118
1268	0.96113
1268.2	0.96108
1268.4	0.96102
1268.6	0.96097
1268.8	0.96092
1269	0.96087
1269.2	0.96082
1269.4	0.96077
1269.6	0.96072
1269.8	0.96067
1270	0.96062
1270.2	0.96074
1270.4	0.96086
1270.6	0.96099
1270.8	0.96111
1271	0.96123
1271.2	0.96136
1271.4	0.96148
1271.6	0.9616
1271.8	0.96173
1272	0.96185
1272.2	0.96197
1272.4	0.9621
1272.6	0.96222
1272.8	0.96234
1273	0.96246
1273.2	0.96259
1273.4	0.96271
1273.6	0.96283
1273.8	0.96296
1274	0.96308
1274.2	0.9632
1274.4	0.96333
1274.6	0.96345
1274.8	0.96357
1275	0.9637
1275.2	0.96367
1275.4	0.96364
1275.6	0.96361
1275.8	0.96358
1276	0.96356
1276.2	0.96353
1276.4	0.9635
1276.6	0.96347
1276.8	0.96345
1277	0.96342
1277.2	0.96339
1277.4	0.96336
1277.6	0.96334
1277.8	0.96331
1278	0.96328
1278.2	0.96325
1278.4	0.96323
1278.6	0.9632
1278.8	0.96317
1279	0.96314
1279.2	0.96311
1279.4	0.96309
1279.6	0.96306
1279.8	0.96303
1280	0.963
1280.2	0.96291
1280.4	0.96282
1280.6	0.96273
1280.8	0.96264
1281	0.96255
1281.2	0.96246
1281.4	0.96237
1281.6	0.96228
1281.8	0.96219
1282	0.9621
1282.2	0.96201
1282.4	0.96192
1282.6	0.96183
1282.8	0.96174
1283	0.96165
1283.2	0.96156
1283.4	0.96147
1283.6	0.96138
1283.8	0.96129
1284	0.9612
1284.2	0.96111
1284.4	0.96102
1284.6	0.96093
1284.8	0.96084
1285	0.96075
1285.2	0.96079
1285.4	0.96084
1285.6	0.96088
1285.8	0.96092
1286	0.96097
1286.2	0.96101
1286.4	0.96105
1286.6	0.96109
1286.8	0.96114
1287	0.96118
1287.2	0.96122
1287.4	0.96127
1287.6	0.96131
1287.8	0.96135
1288	0.9614
1288.2	0.96144
1288.4	0.96148
1288.6	0.96153
1288.8	0.96157
1289	0.96161
1289.2	0.96166
1289.4	0.9617
1289.6	0.96174
1289.8	0.96179
1290	0.96183
1290.2	0.96198
1290.4	0.96214
1290.6	0.9623
1290.8	0.96245
1291	0.96261
1291.2	0.96276
1291.4	0.96292
1291.6	0.96308
1291.8	0.96323
1292	0.96339
1292.2	0.96354
1292.4	0.9637
1292.6	0.96386
1292.8	0.96401
1293	0.96417
1293.2	0.96432
1293.4	0.96448
1293.6	0.96463
1293.8	0.96479
1294	0.96495
1294.2	0.9651
1294.4	0.96526
1294.6	0.96541
1294.8	0.96557
1295	0.96573
1295.2	0.96569
1295.4	0.96565
1295.6	0.96561
1295.8	0.96557
1296	0.96554
1296.2	0.9655
1296.4	0.96546
1296.6	0.96542
1296.8	0.96538
1297	0.96534
1297.2	0.96531
1297.4	0.96527
1297.6	0.96523
1297.8	0.96519
1298	0.96515
1298.2	0.96512
1298.4	0.96508
1298.6	0.96504
1298.8	0.965
1299	0.96496
1299.2	0.96493
1299.4	0.96489
1299.6	0.96485
1299.8	0.96481
1300	0.96477
1300.2	0.96472
1300.4	0.96466
1300.6	0.9646
1300.8	0.96454
1301	0.96448
1301.2	0.96442
1301.4	0.96436
1301.6	0.96431
1301.8	0.96425
1302	0.96419
1302.2	0.96413
1302.4	0.96407
1302.6	0.96401
1302.8	0.96396
1303	0.9639
1303.2	0.96384
1303.4	0.96378
1303.6	0.96372
1303.8	0.96366
1304	0.96361
1304.2	0.96355
1304.4	0.96349
1304.6	0.96343
1304.8	0.96337
1305	0.96331
1305.2	0.96348
1305.4	0.96365
1305.6	0.96382
1305.8	0.96398
1306	0.96415
1306.2	0.96432
1306.4	0.96448
1306.6	0.96465
1306.8	0.96482
1307	0.96499
1307.2	0.96515
1307.4	0.96532
1307.6	0.96549
1307.8	0.96565
1308	0.96582
1308.2	0.96599
1308.4	0.96616
1308.6	0.96632
1308.8	0.96649
1309	0.96666
1309.2	0.96683
1309.4	0.96699
1309.6	0.96716
1309.8	0.96733
1310	0.96749
1310.2	0.96752
1310.4	0.96755
1310.6	0.96757
1310.8	0.9676
1311	0.96762
1311.2	0.96765
1311.4	0.96767
1311.6	0.9677
1311.8	0.96773
1312	0.96775
1312.2	0.96778
1312.4	0.9678
1312.6	0.96783
1312.8	0.96785
1313	0.96788
1313.2	0.96791
1313.4	0.96793
1313.6	0.96796
1313.8	0.96798
1314	0.96801
1314.2	0.96803
1314.4	0.96806
1314.6	0.96809
1314.8	0.96811
1315	0.96814
1315.2	0.968
1315.4	0.96787
1315.6	0.96773
1315.8	0.96759
1316	0.96746
1316.2	0.96732
1316.4	0.96718
1316.6	0.96705
1316.8	0.96691
1317	0.96678
1317.2	0.96664
1317.4	0.9665
1317.6	0.96637
1317.8	0.96623
1318	0.9661
1318.2	0.96596
1318.4	0.96582
1318.6	0.96569
1318.8	0.96555
1319	0.96541
1319.2	0.96528
1319.4	0.96514
1319.6	0.96501
1319.8	0.96487
1320	0.96473
1320.2	0.96489
1320.4	0.96505
1320.6	0.96521
1320.8	0.96536
1321	0.96552
1321.2	0.96568
1321.4	0.96584
1321.6	0.96599
1321.8	0.96615
1322	0.96631
1322.2	0.96647
1322.4	0.96662
1322.6	0.96678
1322.8	0.96694
1323	0.9671
1323.2	0.96725
1323.4	0.96741
1323.6	0.96757
1323.8	0.96773
1324	0.96788
1324.2	0.96804
1324.4	0.9682
1324.6	0.96836
1324.8	0.96851
1325	0.96867
1325.2	0.96879
1325.4	0.96892
1325.6	0.96904
1325.8	0.96916
1326	0.96929
1326.2	0.96941
1326.4	0.96953
1326.6	0.96966
1326.8	0.96978
1327	0.9699
1327.2	0.97002
1327.4	0.97015
1327.6	0.97027
1327.8	0.97039
1328	0.97052
1328.2	0.97064
1328.4	0.97076
1328.6	0.97089
1328.8	0.97101
1329	0.97113
1329.2	0.97125
1329.4	0.97138
1329.6	0.9715
1329.8	0.97162
1330	0.97175
1330.2	0.97167
1330.4	0.97158
1330.6	0.9715
1330.8	0.97142
1331	0.97134
1331.2	0.97126
1331.4	0.97118
1331.6	0.97109
1331.8	0.97101
1332	0.97093
1332.2	0.97085
1332.4	0.97077
1332.6	0.97068
1332.8	0.9706
1333	0.97052
1333.2	0.97044
1333.4	0.97036
1333.6	0.97028
1333.8	0.97019
1334	0.97011
1334.2	0.97003
1334.4	0.96995
1334.6	0.96987
1334.8	0.96979
1335	0.9697
1335.2	0.96951
1335.4	0.96931
1335.6	0.96911
1335.8	0.96891
1336	0.96872
1336.2	0.96852
1336.4	0.96832
1336.6	0.96812
1336.8	0.96793
1337	0.96773
1337.2	0.96753
1337.4	0.96733
1337.6	0.96714
1337.8	0.96694
1338	0.96674
1338.2	0.96654
1338.4	0.96635
1338.6	0.96615
1338.8	0.96595
1339	0.96575
1339.2	0.96556
1339.4	0.96536
1339.6	0.96516
1339.8	0.96496
1340	0.96477
1340.2	0.96482
1340.4	0.96487
1340.6	0.96492
1340.8	0.96498
1341	0.96503
1341.2	0.96508
1341.4	0.96514
1341.6	0.96519
1341.8	0.96524
1342	0.96529
1342.2	0.96535
1342.4	0.9654
1342.6	0.96545
1342.8	0.96551
1343	0.96556
1343.2	0.96561
1343.4	0.96566
1343.6	0.96572
1343.8	0.96577
1344	0.96582
1344.2	0.96588
1344.4	0.96593
1344.6	0.96598
1344.8	0.96603
1345	0.96609
1345.2	0.96607
1345.4	0.96606
1345.6	0.96604
1345.8	0.96603
1346	0.96601
1346.2	0.966
1346.4	0.96598
1346.6	0.96597
1346.8	0.96595
1347	0.96594
1347.2	0.96592
1347.4	0.96591
1347.6	0.96589
1347.8	0.96587
1348	0.96586
1348.2	0.96584
1348.4	0.96583
1348.6	0.96581
1348.8	0.9658
1349	0.96578
1349.2	0.96577
1349.4	0.96575
1349.6	0.96574
1349.8	0.96572
1350	0.96571
1350.2	0.96559
1350.4	0.96547
1350.6	0.96535
1350.8	0.96523
1351	0.96511
1351.2	0.96498
1351.4	0.96486
1351.6	0.96474
1351.8	0.96462
1352	0.9645
1352.2	0.96438
1352.4	0.96426
1352.6	0.96414
1352.8	0.96402
1353	0.9639
1353.2	0.96378
1353.4	0.96366
1353.6	0.96354
1353.8	0.96342
1354	0.96329
1354.2	0.96317
1354.4	0.96305
1354.6	0.96293
1354.8	0.96281
1355	0.96269
1355.2	0.96281
1355.4	0.96293
1355.6	0.96305
1355.8	0.96317
1356	0.96329
1356.2	0.96341
1356.4	0.96353
1356.6	0.96365
1356.8	0.96377
1357	0.96389
1357.2	0.96401
1357.4	0.96413
1357.6	0.96425
1357.8	0.96437
1358	0.96449
1358.2	0.96461
1358.4	0.96473
1358.6	0.96485
1358.8	0.96497
1359	0.96509
1359.2	0.96521
1359.4	0.96533
1359.6	0.96545
1359.8	0.96557
1360	0.96568
1360.2	0.96578
1360.4	0.96588
1360.6	0.96599
1360.8	0.96609
1361	0.96619
1361.2	0.96629
1361.4	0.96639
1361.6	0.96649
1361.8	0.96659
1362	0.96669
1362.2	0.96679
1362.4	0.96689
1362.6	0.96699
1362.8	0.96709
1363	0.96719
1363.2	0.96729
1363.4	0.96739
1363.6	0.96749
1363.8	0.96759
1364	0.96769
1364.2	0.96779
1364.4	0.96789
1364.6	0.96799
1364.8	0.96809
1365	0.96819
1365.2	0.96829
1365.4	0.9684
1365.6	0.96851
1365.8	0.96862
1366	0.96873
1366.2	0.96884
1366.4	0.96895
1366.6	0.96905
1366.8	0.96916
1367	0.96927
1367.2	0.96938
1367.4	0.96949
1367.6	0.9696
1367.8	0.96971
1368	0.96982
1368.2	0.96992
1368.4	0.97003
1368.6	0.97014
1368.8	0.97025
1369	0.97036
1369.2	0.97047
1369.4	0.97058
1369.6	0.97068
1369.8	0.97079
1370	0.9709
1370.2	0.97039
1370.4	0.96988
1370.6	0.96936
1370.8	0.96885
1371	0.96834
1371.2	0.96782
1371.4	0.96731
1371.6	0.9668
1371.8	0.96629
1372	0.96577
1372.2	0.96526
1372.4	0.96475
1372.6	0.96423
1372.8	0.96372
1373	0.96321
1373.2	0.9627
1373.4	0.96218
1373.6	0.96167
1373.8	0.96116
1374	0.96064
1374.2	0.96013
1374.4	0.95962
1374.6	0.95911
1374.8	0.95859
1375	0.95808
1375.2	0.95788
1375.4	0.95768
1375.6	0.95748
1375.8	0.95728
1376	0.95708
1376.2	0.95688
1376.4	0.95668
1376.6	0.95648
1376.8	0.95628
1377	0.95608
1377.2	0.95588
1377.4	0.95567
1377.6	0.95547
1377.8	0.95527
1378	0.95507
1378.2	0.95487
1378.4	0.95467
1378.6	0.95447
1378.8	0.95427
1379	0.95407
1379.2	0.95387
1379.4	0.95367
1379.6	0.95347
1379.8	0.95327
1380	0.95307
1380.2	0.95292
1380.4	0.95278
1380.6	0.95264
1380.8	0.95249
1381	0.95235
1381.2	0.9522
1381.4	0.95206
1381.6	0.95191
1381.8	0.95177
1382	0.95163
1382.2	0.95148
1382.4	0.95134
1382.6	0.95119
1382.8	0.95105
1383	0.9509
1383.2	0.95076
1383.4	0.95062
1383.6	0.95047
1383.8	0.95033
1384	0.95018
1384.2	0.95004
1384.4	0.94989
1384.6	0.94975
1384.8	0.94961
1385	0.94946
1385.2	0.94925
1385.4	0.94904
1385.6	0.94883
1385.8	0.94862
1386	0.94841
1386.2	0.94819
1386.4	0.94798
1386.6	0.94777
1386.8	0.94756
1387	0.94735
1387.2	0.94714
1387.4	0.94693
1387.6	0.94671
1387.8	0.9465
1388	0.94629
1388.2	0.94608
1388.4	0.94587
1388.6	0.94566
1388.8	0.94545
1389	0.94523
1389.2	0.94502
1389.4	0.94481
1389.6	0.9446
1389.8	0.94439
1390	0.94418
1390.2	0.94438
1390.4	0.94459
1390.6	0.94479
1390.8	0.945
1391	0.9452
1391.2	0.94541
1391.4	0.94562
1391.6	0.94582
1391.8	0.94603
1392	0.94623
1392.2	0.94644
1392.4	0.94664
1392.6	0.94685
1392.8	0.94705
1393	0.94726
1393.2	0.94746
1393.4	0.94767
1393.6	0.94788
1393.8	0.94808
1394	0.94829
1394.2	0.94849
1394.4	0.9487
1394.6	0.9489
1394.8	0.94911
1395	0.94931
1395.2	0.94973
1395.4	0.95014
1395.6	0.95056
1395.8	0.95097
1396	0.95139
1396.2	0.95181
1396.4	0.95222
1396.6	0.95264
1396.8	0.95305
1397	0.95347
1397.2	0.95388
1397.4	0.9543
1397.6	0.95471
1397.8	0.95513
1398	0.95554
1398.2	0.95596
1398.4	0.95638
1398.6	0.95679
1398.8	0.95721
1399	0.95762
1399.2	0.95804
1399.4	0.95845
1399.6	0.95887
1399.8	0.95928
1400	0.9597
1400.2	0.95981
1400.4	0.95992
1400.6	0.96003
1400.8	0.96014
1401	0.96025
1401.2	0.96036
1401.4	0.96047
1401.6	0.96058
1401.8	0.96069
1402	0.9608
1402.2	0.96091
1402.4	0.96102
1402.6	0.96113
1402.8	0.96124
1403	0.96135
1403.2	0.96146
1403.4	0.96157
1403.6	0.96168
1403.8	0.96179
1404	0.9619
1404.2	0.96201
1404.4	0.96212
1404.6	0.96223
1404.8	0.96234
1405	0.96245
1405.2	0.96229
1405.4	0.96212
1405.6	0.96196
1405.8	0.96179
1406	0.96163
1406.2	0.96147
1406.4	0.9613
1406.6	0.96114
1406.8	0.96097
1407	0.96081
1407.2	0.96065
1407.4	0.96048
1407.6	0.96032
1407.8	0.96016
1408	0.95999
1408.2	0.95983
1408.4	0.95966
1408.6	0.9595
1408.8	0.95934
1409	0.95917
1409.2	0.95901
1409.4	0.95884
1409.6	0.95868
1409.8	0.95852
1410	0.95835
1410.2	0.95835
1410.4	0.95834
1410.6	0.95833
1410.8	0.95832
1411	0.95832
1411.2	0.95831
1411.4	0.9583
1411.6	0.9583
1411.8	0.95829
1412	0.95828
1412.2	0.95828
1412.4	0.95827
1412.6	0.95826
1412.8	0.95826
1413	0.95825
1413.2	0.95824
1413.4	0.95824
1413.6	0.95823
1413.8	0.95822
1414	0.95822
1414.2	0.95821
1414.4	0.9582
1414.6	0.9582
1414.8	0.95819
1415	0.95818
1415.2	0.95842
1415.4	0.95865
1415.6	0.95888
1415.8	0.95912
1416	0.95935
1416.2	0.95958
1416.4	0.95981
1416.6	0.96005
1416.8	0.96028
1417	0.96051
1417.2	0.96075
1417.4	0.96098
1417.6	0.96121
1417.8	0.96145
1418	0.96168
1418.2	0.96191
1418.4	0.96215
1418.6	0.96238
1418.8	0.96261
1419	0.96284
1419.2	0.96308
1419.4	0.96331
1419.6	0.96354
1419.8	0.96378
1420	0.96401
1420.2	0.96414
1420.4	0.96427
1420.6	0.9644
1420.8	0.96453
1421	0.96466
1421.2	0.9648
1421.4	0.96493
1421.6	0.96506
1421.8	0.96519
1422	0.96532
1422.2	0.96545
1422.4	0.96558
1422.6	0.96571
1422.8	0.96584
1423	0.96597
1423.2	0.96611
1423.4	0.96624
1423.6	0.96637
1423.8	0.9665
1424	0.96663
1424.2	0.96676
1424.4	0.96689
1424.6	0.96702
1424.8	0.96715
1425	0.96729
1425.2	0.96719
1425.4	0.96709
1425.6	0.96699
1425.8	0.96689
1426	0.96679
1426.2	0.96669
1426.4	0.96659
1426.6	0.96649
1426.8	0.96639
1427	0.96629
1427.2	0.96619
1427.4	0.96609
1427.6	0.966
1427.8	0.9659
1428	0.9658
1428.2	0.9657
1428.4	0.9656
1428.6	0.9655
1428.8	0.9654
1429	0.9653
1429.2	0.9652
1429.4	0.9651
1429.6	0.965
1429.8	0.9649
1430	0.9648
1430.2	0.96489
1430.4	0.96497
1430.6	0.96505
1430.8	0.96513
1431	0.96521
1431.2	0.96529
1431.4	0.96537
1431.6	0.96545
1431.8	0.96553
1432	0.96561
1432.2	0.96569
1432.4	0.96577
1432.6	0.96585
1432.8	0.96593
1433	0.96601
1433.2	0.96609
1433.4	0.96618
1433.6	0.96626
1433.8	0.96634
1434	0.96642
1434.2	0.9665
1434.4	0.96658
1434.6	0.96666
1434.8	0.96674
1435	0.96682
1435.2	0.96696
1435.4	0.96711
1435.6	0.96725
1435.8	0.96739
1436	0.96754
1436.2	0.96768
1436.4	0.96782
1436.6	0.96797
1436.8	0.96811
1437	0.96825
1437.2	0.9684
1437.4	0.96854
1437.6	0.96868
1437.8	0.96883
1438	0.96897
1438.2	0.96911
1438.4	0.96926
1438.6	0.9694
1438.8	0.96954
1439	0.96969
1439.2	0.96983
1439.4	0.96998
1439.6	0.97012
1439.8	0.97026
1440	0.97041
1440.2	0.97043
1440.4	0.97045
1440.6	0.97047
1440.8	0.97048
1441	0.9705
1441.2	0.97052
1441.4	0.97054
1441.6	0.97056
1441.8	0.97058
1442	0.9706
1442.2	0.97062
1442.4	0.97064
1442.6	0.97066
1442.8	0.97068
1443	0.9707
1443.2	0.97072
1443.4	0.97074
1443.6	0.97076
1443.8	0.97078
1444	0.9708
1444.2	0.97082
1444.4	0.97084
1444.6	0.97086
1444.8	0.97088
1445	0.9709
1445.2	0.97075
1445.4	0.97061
1445.6	0.97046
1445.8	0.97031
1446	0.97016
1446.2	0.97002
1446.4	0.96987
1446.6	0.96972
1446.8	0.96957
1447	0.96942
1447.2	0.96928
1447.4	0.96913
1447.6	0.96898
1447.8	0.96883
1448	0.96869
1448.2	0.96854
1448.4	0.96839
1448.6	0.96824
1448.8	0.96809
1449	0.96795
1449.2	0.9678
1449.4	0.96765
1449.6	0.9675
1449.8	0.96735
1450	0.96721
1450.2	0.96724
1450.4	0.96728
1450.6	0.96731
1450.8	0.96735
1451	0.96738
1451.2	0.96742
1451.4	0.96745
1451.6	0.96749
1451.8	0.96752
1452	0.96756
1452.2	0.96759
1452.4	0.96763
1452.6	0.96766
1452.8	0.9677
1453	0.96774
1453.2	0.96777
1453.4	0.96781
1453.6	0.96784
1453.8	0.96788
1454	0.96791
1454.2	0.96795
1454.4	0.96798
1454.6	0.96802
1454.8	0.96805
1455	0.96809
1455.2	0.96819
1455.4	0.9683
1455.6	0.9684
1455.8	0.96851
1456	0.96862
1456.2	0.96872
1456.4	0.96883
1456.6	0.96893
1456.8	0.96904
1457	0.96914
1457.2	0.96925
1457.4	0.96935
1457.6	0.96946
1457.8	0.96956
1458	0.96967
1458.2	0.96978
1458.4	0.96988
1458.6	0.96999
1458.8	0.97009
1459	0.9702
1459.2	0.9703
1459.4	0.97041
1459.6	0.97051
1459.8	0.97062
1460	0.97072
1460.2	0.97087
1460.4	0.97102
1460.6	0.97117
1460.8	0.97132
1461	0.97147
1461.2	0.97162
1461.4	0.97177
1461.6	0.97192
1461.8	0.97207
1462	0.97221
1462.2	0.97236
1462.4	0.97251
1462.6	0.97266
1462.8	0.97281
1463	0.97296
1463.2	0.97311
1463.4	0.97326
1463.6	0.97341
1463.8	0.97356
1464	0.97371
1464.2	0.97385
1464.4	0.974
1464.6	0.97415
1464.8	0.9743
1465	0.97445
1465.2	0.9741
1465.4	0.97374
1465.6	0.97339
1465.8	0.97304
1466	0.97268
1466.2	0.97233
1466.4	0.97198
1466.6	0.97163
1466.8	0.97127
1467	0.97092
1467.2	0.97057
1467.4	0.97021
1467.6	0.96986
1467.8	0.96951
1468	0.96915
1468.2	0.9688
1468.4	0.96845
1468.6	0.9681
1468.8	0.96774
1469	0.96739
1469.2	0.96704
1469.4	0.96668
1469.6	0.96633
1469.8	0.96598
1470	0.96562
1470.2	0.96572
1470.4	0.96582
1470.6	0.96592
1470.8	0.96602
1471	0.96612
1471.2	0.96622
1471.4	0.96632
1471.6	0.96642
1471.8	0.96652
1472	0.96662
1472.2	0.96672
1472.4	0.96682
1472.6	0.96692
1472.8	0.96702
1473	0.96712
1473.2	0.96722
1473.4	0.96732
1473.6	0.96742
1473.8	0.96752
1474	0.96762
1474.2	0.96772
1474.4	0.96782
1474.6	0.96792
1474.8	0.96802
1475	0.96812
1475.2	0.96808
1475.4	0.96804
1475.6	0.968
1475.8	0.96796
1476	0.96792
1476.2	0.96788
1476.4	0.96784
1476.6	0.9678
1476.8	0.96776
1477	0.96772
1477.2	0.96768
1477.4	0.96764
1477.6	0.9676
1477.8	0.96756
1478	0.96752
1478.2	0.96748
1478.4	0.96744
1478.6	0.9674
1478.8	0.96736
1479	0.96732
1479.2	0.96728
1479.4	0.96724
1479.6	0.9672
1479.8	0.96716
1480	0.96712
1480.2	0.96716
1480.4	0.96719
1480.6	0.96723
1480.8	0.96726
1481	0.9673
1481.2	0.96734
1481.4	0.96737
1481.6	0.96741
1481.8	0.96744
1482	0.96748
1482.2	0.96751
1482.4	0.96755
1482.6	0.96758
1482.8	0.96762
1483	0.96766
1483.2	0.96769
1483.4	0.96773
1483.6	0.96776
1483.8	0.9678
1484	0.96783
1484.2	0.96787
1484.4	0.96791
1484.6	0.96794
1484.8	0.96798
1485	0.96801
1485.2	0.96805
1485.4	0.96809
1485.6	0.96813
1485.8	0.96817
1486	0.9682
1486.2	0.96824
1486.4	0.96828
1486.6	0.96832
1486.8	0.96836
1487	0.9684
1487.2	0.96843
1487.4	0.96847
1487.6	0.96851
1487.8	0.96855
1488	0.96859
1488.2	0.96862
1488.4	0.96866
1488.6	0.9687
1488.8	0.96874
1489	0.96878
1489.2	0.96882
1489.4	0.96885
1489.6	0.96889
1489.8	0.96893
1490	0.96897
1490.2	0.96883
1490.4	0.96868
1490.6	0.96854
1490.8	0.9684
1491	0.96825
1491.2	0.96811
1491.4	0.96797
1491.6	0.96783
1491.8	0.96768
1492	0.96754
1492.2	0.9674
1492.4	0.96726
1492.6	0.96711
1492.8	0.96697
1493	0.96683
1493.2	0.96668
1493.4	0.96654
1493.6	0.9664
1493.8	0.96626
1494	0.96611
1494.2	0.96597
1494.4	0.96583
1494.6	0.96568
1494.8	0.96554
1495	0.9654
1495.2	0.96534
1495.4	0.96528
1495.6	0.96522
1495.8	0.96516
1496	0.9651
1496.2	0.96504
1496.4	0.96498
1496.6	0.96492
1496.8	0.96486
1497	0.9648
1497.2	0.96474
1497.4	0.96468
1497.6	0.96462
1497.8	0.96456
1498	0.9645
1498.2	0.96444
1498.4	0.96438
1498.6	0.96432
1498.8	0.96426
1499	0.9642
1499.2	0.96414
1499.4	0.96408
1499.6	0.96402
1499.8	0.96396
1500	0.9639
1500.2	0.96427
1500.4	0.96465
1500.6	0.96502
1500.8	0.96539
1501	0.96577
1501.2	0.96614
1501.4	0.96651
1501.6	0.96689
1501.8	0.96726
1502	0.96763
1502.2	0.968
1502.4	0.96838
1502.6	0.96875
1502.8	0.96912
1503	0.9695
1503.2	0.96987
1503.4	0.97024
1503.6	0.97062
1503.8	0.97099
1504	0.97136
1504.2	0.97174
1504.4	0.97211
1504.6	0.97248
1504.8	0.97286
1505	0.97323
1505.2	0.97308
1505.4	0.97292
1505.6	0.97277
1505.8	0.97262
1506	0.97246
1506.2	0.97231
1506.4	0.97216
1506.6	0.972
1506.8	0.97185
1507	0.9717
1507.2	0.97155
1507.4	0.97139
1507.6	0.97124
1507.8	0.97109
1508	0.97093
1508.2	0.97078
1508.4	0.97063
1508.6	0.97048
1508.8	0.97032
1509	0.97017
1509.2	0.97002
1509.4	0.96986
1509.6	0.96971
1509.8	0.96956
1510	0.9694
1510.2	0.96931
1510.4	0.96921
1510.6	0.96911
1510.8	0.96901
1511	0.96891
1511.2	0.96881
1511.4	0.96871
1511.6	0.96861
1511.8	0.96851
1512	0.96841
1512.2	0.96832
1512.4	0.96822
1512.6	0.96812
1512.8	0.96802
1513	0.96792
1513.2	0.96782
1513.4	0.96772
1513.6	0.96762
1513.8	0.96752
1514	0.96742
1514.2	0.96733
1514.4	0.96723
1514.6	0.96713
1514.8	0.96703
1515	0.96693
1515.2	0.96668
1515.4	0.96644
1515.6	0.96619
1515.8	0.96594
1516	0.96569
1516.2	0.96545
1516.4	0.9652
1516.6	0.96495
1516.8	0.96471
1517	0.96446
1517.2	0.96421
1517.4	0.96397
1517.6	0.96372
1517.8	0.96347
1518	0.96322
1518.2	0.96298
1518.4	0.96273
1518.6	0.96248
1518.8	0.96224
1519	0.96199
1519.2	0.96174
1519.4	0.96149
1519.6	0.96125
1519.8	0.961
1520	0.96075
1520.2	0.96087
1520.4	0.96098
1520.6	0.96109
1520.8	0.9612
1521	0.96131
1521.2	0.96143
1521.4	0.96154
1521.6	0.96165
1521.8	0.96176
1522	0.96188
1522.2	0.96199
1522.4	0.9621
1522.6	0.96221
1522.8	0.96233
1523	0.96244
1523.2	0.96255
1523.4	0.96266
1523.6	0.96278
1523.8	0.96289
1524	0.963
1524.2	0.96311
1524.4	0.96323
1524.6	0.96334
1524.8	0.96345
1525	0.96356
1525.2	0.96355
1525.4	0.96354
1525.6	0.96353
1525.8	0.96352
1526	0.9635
1526.2	0.96349
1526.4	0.96348
1526.6	0.96347
1526.8	0.96346
1527	0.96344
1527.2	0.96343
1527.4	0.96342
1527.6	0.96341
1527.8	0.9634
1528	0.96338
1528.2	0.96337
1528.4	0.96336
1528.6	0.96335
1528.8	0.96334
1529	0.96332
1529.2	0.96331
1529.4	0.9633
1529.6	0.96329
1529.8	0.96328
1530	0.96326
1530.2	0.96311
1530.4	0.96296
1530.6	0.96281
1530.8	0.96265
1531	0.9625
1531.2	0.96235
1531.4	0.9622
1531.6	0.96204
1531.8	0.96189
1532	0.96174
1532.2	0.96159
1532.4	0.96143
1532.6	0.96128
1532.8	0.96113
1533	0.96098
1533.2	0.96082
1533.4	0.96067
1533.6	0.96052
1533.8	0.96037
1534	0.96021
1534.2	0.96006
1534.4	0.95991
1534.6	0.95976
1534.8	0.9596
1535	0.95945
1535.2	0.95938
1535.4	0.95931
1535.6	0.95925
1535.8	0.95918
1536	0.95911
1536.2	0.95904
1536.4	0.95897
1536.6	0.95891
1536.8	0.95884
1537	0.95877
1537.2	0.9587
1537.4	0.95864
1537.6	0.95857
1537.8	0.9585
1538	0.95843
1538.2	0.95836
1538.4	0.9583
1538.6	0.95823
1538.8	0.95816
1539	0.95809
1539.2	0.95802
1539.4	0.95796
1539.6	0.95789
1539.8	0.95782
1540	0.95775
1540.2	0.95789
1540.4	0.95803
1540.6	0.95817
1540.8	0.95832
1541	0.95846
1541.2	0.9586
1541.4	0.95874
1541.6	0.95888
1541.8	0.95902
1542	0.95916
1542.2	0.9593
1542.4	0.95944
1542.6	0.95958
1542.8	0.95972
1543	0.95986
1543.2	0.96
1543.4	0.96014
1543.6	0.96029
1543.8	0.96043
1544	0.96057
1544.2	0.96071
1544.4	0.96085
1544.6	0.96099
1544.8	0.96113
1545	0.96127
1545.2	0.96132
1545.4	0.96138
1545.6	0.96143
1545.8	0.96148
1546	0.96153
1546.2	0.96159
1546.4	0.96164
1546.6	0.96169
1546.8	0.96174
1547	0.9618
1547.2	0.96185
1547.4	0.9619
1547.6	0.96195
1547.8	0.96201
1548	0.96206
1548.2	0.96211
1548.4	0.96217
1548.6	0.96222
1548.8	0.96227
1549	0.96232
1549.2	0.96238
1549.4	0.96243
1549.6	0.96248
1549.8	0.96253
1550	0.96259
1550.2	0.96261
1550.4	0.96263
1550.6	0.96266
1550.8	0.96268
1551	0.9627
1551.2	0.96273
1551.4	0.96275
1551.6	0.96278
1551.8	0.9628
1552	0.96282
1552.2	0.96285
1552.4	0.96287
1552.6	0.96289
1552.8	0.96292
1553	0.96294
1553.2	0.96296
1553.4	0.96299
1553.6	0.96301
1553.8	0.96304
1554	0.96306
1554.2	0.96308
1554.4	0.96311
1554.6	0.96313
1554.8	0.96315
1555	0.96318
1555.2	0.96301
1555.4	0.96284
1555.6	0.96268
1555.8	0.96251
1556	0.96234
1556.2	0.96218
1556.4	0.96201
1556.6	0.96184
1556.8	0.96168
1557	0.96151
1557.2	0.96134
1557.4	0.96118
1557.6	0.96101
1557.8	0.96084
1558	0.96068
1558.2	0.96051
1558.4	0.96034
1558.6	0.96018
1558.8	0.96001
1559	0.95984
1559.2	0.95968
1559.4	0.95951
1559.6	0.95934
1559.8	0.95918
1560	0.95901
1560.2	0.95907
1560.4	0.95913
1560.6	0.95918
1560.8	0.95924
1561	0.9593
1561.2	0.95936
1561.4	0.95942
1561.6	0.95947
1561.8	0.95953
1562	0.95959
1562.2	0.95965
1562.4	0.95971
1562.6	0.95977
1562.8	0.95982
1563	0.95988
1563.2	0.95994
1563.4	0.96
1563.6	0.96006
1563.8	0.96012
1564	0.96017
1564.2	0.96023
1564.4	0.96029
1564.6	0.96035
1564.8	0.96041
1565	0.96046
1565.2	0.96049
1565.4	0.96052
1565.6	0.96055
1565.8	0.96058
1566	0.9606
1566.2	0.96063
1566.4	0.96066
1566.6	0.96069
1566.8	0.96072
1567	0.96075
1567.2	0.96077
1567.4	0.9608
1567.6	0.96083
1567.8	0.96086
1568	0.96089
1568.2	0.96091
1568.4	0.96094
1568.6	0.96097
1568.8	0.961
1569	0.96103
1569.2	0.96105
1569.4	0.96108
1569.6	0.96111
1569.8	0.96114
1570	0.96117
1570.2	0.96117
1570.4	0.96118
1570.6	0.96118
1570.8	0.96119
1571	0.9612
1571.2	0.9612
1571.4	0.96121
1571.6	0.96121
1571.8	0.96122
1572	0.96123
1572.2	0.96123
1572.4	0.96124
1572.6	0.96124
1572.8	0.96125
1573	0.96125
1573.2	0.96126
1573.4	0.96127
1573.6	0.96127
1573.8	0.96128
1574	0.96128
1574.2	0.96129
1574.4	0.9613
1574.6	0.9613
1574.8	0.96131
1575	0.96131
1575.2	0.9612
1575.4	0.96109
1575.6	0.96097
1575.8	0.96086
1576	0.96074
1576.2	0.96063
1576.4	0.96051
1576.6	0.9604
1576.8	0.96028
1577	0.96017
1577.2	0.96005
1577.4	0.95994
1577.6	0.95983
1577.8	0.95971
1578	0.9596
1578.2	0.95948
1578.4	0.95937
1578.6	0.95925
1578.8	0.95914
1579	0.95902
1579.2	0.95891
1579.4	0.95879
1579.6	0.95868
1579.8	0.95857
1580	0.95845
1580.2	0.95832
1580.4	0.95819
1580.6	0.95806
1580.8	0.95792
1581	0.95779
1581.2	0.95766
1581.4	0.95753
1581.6	0.9574
1581.8	0.95726
1582	0.95713
1582.2	0.957
1582.4	0.95687
1582.6	0.95674
1582.8	0.95661
1583	0.95647
1583.2	0.95634
1583.4	0.95621
1583.6	0.95608
1583.8	0.95595
1584	0.95581
1584.2	0.95568
1584.4	0.95555
1584.6	0.95542
1584.8	0.95529
1585	0.95516
1585.2	0.95512
1585.4	0.95509
1585.6	0.95505
1585.8	0.95502
1586	0.95498
1586.2	0.95495
1586.4	0.95491
1586.6	0.95488
1586.8	0.95484
1587	0.95481
1587.2	0.95477
1587.4	0.95474
1587.6	0.9547
1587.8	0.95467
1588	0.95463
1588.2	0.9546
1588.4	0.95456
1588.6	0.95453
1588.8	0.95449
1589	0.95446
1589.2	0.95442
1589.4	0.95439
1589.6	0.95435
1589.8	0.95432
1590	0.95429
1590.2	0.95409
1590.4	0.9539
1590.6	0.95371
1590.8	0.95351
1591	0.95332
1591.2	0.95312
1591.4	0.95293
1591.6	0.95274
1591.8	0.95254
1592	0.95235
1592.2	0.95216
1592.4	0.95196
1592.6	0.95177
1592.8	0.95158
1593	0.95138
1593.2	0.95119
1593.4	0.951
1593.6	0.9508
1593.8	0.95061
1594	0.95042
1594.2	0.95022
1594.4	0.95003
1594.6	0.94984
1594.8	0.94964
1595	0.94945
1595.2	0.94949
1595.4	0.94953
1595.6	0.94957
1595.8	0.9496
1596	0.94964
1596.2	0.94968
1596.4	0.94972
1596.6	0.94976
1596.8	0.9498
1597	0.94983
1597.2	0.94987
1597.4	0.94991
1597.6	0.94995
1597.8	0.94999
1598	0.95002
1598.2	0.95006
1598.4	0.9501
1598.6	0.95014
1598.8	0.95018
1599	0.95022
1599.2	0.95025
1599.4	0.95029
1599.6	0.95033
1599.8	0.95037
1600	0.95041
1600.2	0.9496
1600.4	0.94879
1600.6	0.94798
1600.8	0.94717
1601	0.94636
1601.2	0.94555
1601.4	0.94475
1601.6	0.94394
1601.8	0.94313
1602	0.94232
1602.2	0.94151
1602.4	0.9407
1602.6	0.93989
1602.8	0.93909
1603	0.93828
1603.2	0.93747
1603.4	0.93666
1603.6	0.93585
1603.8	0.93504
1604	0.93423
1604.2	0.93343
1604.4	0.93262
1604.6	0.93181
1604.8	0.931
1605	0.93019
1605.2	0.92605
1605.4	0.92191
1605.6	0.91777
1605.8	0.91362
1606	0.90948
1606.2	0.90534
1606.4	0.9012
1606.6	0.89706
1606.8	0.89291
1607	0.88877
1607.2	0.88463
1607.4	0.88049
1607.6	0.87635
1607.8	0.8722
1608	0.86806
1608.2	0.86392
1608.4	0.85978
1608.6	0.85564
1608.8	0.8515
1609	0.84735
1609.2	0.84321
1609.4	0.83907
1609.6	0.83493
1609.8	0.83079
1610	0.82664