Typical Measured Spectrum of Semrock Di03-R405/488/532/635 Optical Filter	
For wavelengths between 320 and 1120 nm, values near or below 3e-7 (Optical Density 6.5) are measurement noise limited.
For wavelengths < 320 nm and > 1120 nm, values near or below 3e-6 (Optical Density 5.5) are measurement noise limited. 
Data format:  Wavelength (nm) <tab> Transmission (0 to 1)

345.0	0.01986
345.2	0.02641
345.4	0.02969
345.6	0.02716
345.8	0.01667
346.0	0.00559
346.2	0.00196
346.4	0.0025
346.6	0.00358
346.8	0.00416
347.0	0.00393
347.2	0.00304
347.4	0.00148
347.6	5.0212e-04
347.8	2.3762e-04
348.0	4.6208e-04
348.2	0.00119
348.4	0.00172
348.6	0.00185
348.8	0.00163
349.0	0.00114
349.2	2.9106e-04
349.4	1.0136e-04
349.6	1.0023e-04
349.8	9.8621e-05
350.0	9.7683e-05
350.2	9.6604e-05
350.4	9.6029e-05
350.6	9.5369e-05
350.8	9.524e-05
351.0	9.5826e-05
351.2	9.6883e-05
351.4	9.8101e-05
351.6	9.933e-05
351.8	1.0133e-04
352.0	1.0289e-04
352.2	1.048e-04
352.4	1.0591e-04
352.6	1.0632e-04
352.8	1.0664e-04
353.0	3.0142e-04
353.2	7.3254e-04
353.4	0.00117
353.6	0.00148
353.8	0.00152
354.0	0.00123
354.2	8.6091e-04
354.4	7.6889e-04
354.6	0.00142
354.8	0.00252
355.0	0.00319
355.2	0.00369
355.4	0.0038
355.6	0.00367
355.8	0.00381
356.0	0.00638
356.2	0.01209
356.4	0.01817
356.6	0.02259
356.8	0.0244
357.0	0.02372
357.2	0.02253
357.4	0.02156
357.6	0.0219
357.8	0.02158
358.0	0.01948
358.2	0.01505
358.4	0.00966
358.6	0.00577
358.8	0.00438
359.0	0.00459
359.2	0.00506
359.4	0.0052
359.6	0.00488
359.8	0.00388
360.0	0.00291
360.2	0.00188
360.4	0.00141
360.6	0.00163
360.8	0.00305
361.0	0.00702
361.2	0.01087
361.4	0.01269
361.6	0.01308
361.8	0.01149
362.0	0.00742
362.2	0.00357
362.4	0.00164
362.6	0.00149
362.8	0.00215
363.0	0.0038
363.2	0.0053
363.4	0.00652
363.6	0.00617
363.8	0.00524
364.0	0.00316
364.2	0.00123
364.4	5.9336e-04
364.6	3.2003e-04
364.8	3.3097e-04
365.0	4.8279e-04
365.2	7.4919e-04
365.4	0.00112
365.6	0.00171
365.8	0.00214
366.0	0.0026
366.2	0.00279
366.4	0.00296
366.6	0.00315
366.8	0.00345
367.0	0.00466
367.2	0.00601
367.4	0.00635
367.6	0.00627
367.8	0.00555
368.0	0.00396
368.2	0.00232
368.4	0.00128
368.6	9.0508e-04
368.8	8.6088e-04
369.0	0.00115
369.2	0.00179
369.4	0.00245
369.6	0.00271
369.8	0.00269
370.0	0.00235
370.2	0.00169
370.4	9.7938e-04
370.6	4.8313e-04
370.8	3.2256e-04
371.0	2.7772e-04
371.2	2.2493e-04
371.4	2.4541e-04
371.6	2.4998e-04
371.8	3.6179e-04
372.0	6.0838e-04
372.2	0.00142
372.4	0.0026
372.6	0.00375
372.8	0.00444
373.0	0.0045
373.2	0.00417
373.4	0.00323
373.6	0.00219
373.8	0.00168
374.0	0.00186
374.2	0.0026
374.4	0.00319
374.6	0.00359
374.8	0.00345
375.0	0.00311
375.2	0.00242
375.4	0.00152
375.6	9.1236e-04
375.8	6.258e-04
376.0	5.1954e-04
376.2	4.3154e-04
376.4	4.8495e-04
376.6	4.895e-04
376.8	6.9253e-04
377.0	0.00106
377.2	0.00174
377.4	0.00309
377.6	0.00443
377.8	0.00536
378.0	0.00572
378.2	0.00569
378.4	0.00494
378.6	0.00391
378.8	0.00273
379.0	0.00211
379.2	0.00178
379.4	0.0018
379.6	0.00211
379.8	0.00247
380.0	0.00301
380.2	0.00361
380.4	0.00397
380.6	0.00415
380.8	0.00401
381.0	0.00354
381.2	0.00297
381.4	0.00237
381.6	0.00206
381.8	0.00174
382.0	0.00164
382.2	0.00161
382.4	0.0017
382.6	0.00174
382.8	0.00179
383.0	0.0017
383.2	0.00154
383.4	0.00135
383.6	0.00123
383.8	9.9173e-04
384.0	7.9453e-04
384.2	6.1245e-04
384.4	5.4746e-04
384.6	4.9069e-04
384.8	5.3544e-04
385.0	5.5775e-04
385.2	6.4773e-04
385.4	7.9485e-04
385.6	0.00107
385.8	0.00134
386.0	0.00183
386.2	0.00219
386.4	0.00245
386.6	0.00269
386.8	0.00253
387.0	0.00245
387.2	0.00224
387.4	0.0021
387.6	0.00202
387.8	0.00212
388.0	0.00241
388.2	0.00291
388.4	0.00334
388.6	0.00372
388.8	0.00369
389.0	0.00342
389.2	0.00306
389.4	0.00252
389.6	0.00194
389.8	0.00153
390.0	0.00116
390.2	9.8338e-04
390.4	8.6801e-04
390.6	8.4703e-04
390.8	7.9569e-04
391.0	7.9204e-04
391.2	8.4361e-04
391.4	8.7126e-04
391.6	7.7089e-04
391.8	7.3884e-04
392.0	6.5769e-04
392.2	5.4124e-04
392.4	4.5246e-04
392.6	3.221e-04
392.8	2.5287e-04
393.0	2.0414e-04
393.2	1.5806e-04
393.4	1.2e-04
393.6	9.1481e-05
393.8	1.1141e-04
394.0	8.5528e-05
394.2	1.1476e-04
394.4	1.0315e-04
394.6	8.6852e-05
394.8	1.2451e-04
395.0	2.4794e-04
395.2	4.3794e-04
395.4	3.8198e-04
395.6	4.4449e-04
395.8	6.0725e-04
396.0	7.8409e-04
396.2	0.00129
396.4	0.00208
396.6	0.00267
396.8	0.00344
397.0	0.0038
397.2	0.00346
397.4	0.00292
397.6	0.00262
397.8	0.00195
398.0	0.00146
398.2	0.00115
398.4	9.4925e-04
398.6	9.0386e-04
398.8	9.4554e-04
399.0	0.00106
399.2	0.00117
399.4	0.00145
399.6	0.00171
399.8	0.00182
400.0	0.00198
400.2	0.00194
400.4	0.00191
400.6	0.00164
400.8	0.0013
401.0	0.00108
401.2	8.6226e-04
401.4	6.6335e-04
401.6	4.4772e-04
401.8	4.5215e-04
402.0	4.3855e-04
402.2	3.4147e-04
402.4	3.035e-04
402.6	4.2121e-04
402.8	5.2522e-04
403.0	5.1851e-04
403.2	5.6835e-04
403.4	6.9346e-04
403.6	7.618e-04
403.8	8.4287e-04
404.0	0.00103
404.2	9.2213e-04
404.4	0.00101
404.6	9.2487e-04
404.8	8.8936e-04
405.0	7.3244e-04
405.2	6.1638e-04
405.4	6.5984e-04
405.6	5.3837e-04
405.8	6.9315e-04
406.0	5.3464e-04
406.2	7.2243e-04
406.4	8.4714e-04
406.6	9.3082e-04
406.8	0.00113
407.0	0.00164
407.2	0.00223
407.4	0.00282
407.6	0.00338
407.8	0.00381
408.0	0.00385
408.2	0.00361
408.4	0.00321
408.6	0.00262
408.8	0.00203
409.0	0.00161
409.2	0.0013
409.4	0.00111
409.6	0.0011
409.8	0.00102
410.0	9.5042e-04
410.2	9.6666e-04
410.4	0.00111
410.6	0.00126
410.8	0.00134
411.0	0.00154
411.2	0.00188
411.4	0.0023
411.6	0.00288
411.8	0.00352
412.0	0.00464
412.2	0.006
412.4	0.00792
412.6	0.01042
412.8	0.01389
413.0	0.01822
413.2	0.02348
413.4	0.03
413.6	0.03733
413.8	0.04578
414.0	0.05475
414.2	0.06421
414.4	0.07379
414.6	0.08371
414.8	0.09366
415.0	0.10591
415.2	0.11944
415.4	0.13309
415.6	0.14945
415.8	0.16968
416.0	0.19392
416.2	0.22351
416.4	0.25593
416.6	0.29258
416.8	0.33072
417.0	0.36708
417.2	0.40235
417.4	0.43294
417.6	0.45587
417.8	0.47413
418.0	0.48504
418.2	0.49087
418.4	0.49284
418.6	0.49357
418.8	0.49307
419.0	0.49589
419.2	0.50128
419.4	0.50985
419.6	0.5224
419.8	0.54156
420.0	0.56603
420.2	0.59629
420.4	0.63037
420.6	0.66569
420.8	0.70312
421.0	0.74146
421.2	0.78236
421.4	0.82253
421.6	0.85967
421.8	0.89477
422.0	0.92249
422.2	0.94078
422.4	0.95378
422.6	0.9575
422.8	0.9596
423.0	0.95763
423.2	0.95523
423.4	0.95043
423.6	0.94576
423.8	0.9446
424.0	0.94189
424.2	0.93957
424.4	0.93828
424.6	0.93796
424.8	0.93951
425.0	0.94317
425.2	0.94742
425.4	0.95251
425.6	0.95884
425.8	0.96308
426.0	0.96747
426.2	0.97107
426.4	0.97234
426.6	0.97293
426.8	0.97274
427.0	0.97255
427.2	0.96876
427.4	0.96268
427.6	0.95843
427.8	0.95575
428.0	0.9509
428.2	0.95121
428.4	0.95176
428.6	0.95188
428.8	0.95374
429.0	0.95766
429.2	0.96149
429.4	0.96571
429.6	0.96712
429.8	0.97103
430.0	0.97065
430.2	0.97201
430.4	0.9698
430.6	0.96747
430.8	0.96767
431.0	0.96572
431.2	0.96371
431.4	0.96414
431.6	0.96471
431.8	0.96775
432.0	0.96667
432.2	0.96749
432.4	0.96878
432.6	0.96903
432.8	0.96962
433.0	0.97109
433.2	0.96895
433.4	0.96829
433.6	0.96594
433.8	0.96531
434.0	0.96302
434.2	0.96191
434.4	0.96028
434.6	0.95866
434.8	0.95932
435.0	0.95738
435.2	0.95824
435.4	0.96008
435.6	0.96021
435.8	0.95973
436.0	0.96009
436.2	0.96131
436.4	0.96237
436.6	0.96193
436.8	0.96426
437.0	0.96402
437.2	0.96418
437.4	0.96312
437.6	0.96256
437.8	0.96307
438.0	0.96414
438.2	0.96508
438.4	0.96448
438.6	0.96741
438.8	0.96617
439.0	0.96636
439.2	0.96516
439.4	0.96578
439.6	0.9665
439.8	0.96599
440.0	0.96684
440.2	0.96485
440.4	0.9639
440.6	0.96198
440.8	0.96271
441.0	0.96016
441.2	0.96139
441.4	0.96173
441.6	0.96037
441.8	0.95937
442.0	0.96139
442.2	0.96271
442.4	0.96242
442.6	0.96313
442.8	0.96291
443.0	0.9651
443.2	0.96467
443.4	0.96453
443.6	0.96459
443.8	0.96406
444.0	0.96284
444.2	0.96249
444.4	0.9627
444.6	0.96434
444.8	0.96414
445.0	0.96523
445.2	0.96559
445.4	0.9652
445.6	0.96701
445.8	0.96672
446.0	0.96684
446.2	0.96902
446.4	0.96914
446.6	0.97153
446.8	0.97221
447.0	0.9705
447.2	0.9724
447.4	0.97299
447.6	0.9714
447.8	0.97066
448.0	0.97045
448.2	0.96954
448.4	0.96981
448.6	0.96851
448.8	0.96517
449.0	0.96448
449.2	0.96327
449.4	0.96183
449.6	0.96223
449.8	0.96137
450.0	0.9622
450.2	0.96129
450.4	0.96034
450.6	0.95927
450.8	0.96062
451.0	0.96073
451.2	0.96227
451.4	0.96178
451.6	0.96138
451.8	0.96116
452.0	0.96044
452.2	0.95982
452.4	0.95989
452.6	0.95991
452.8	0.96341
453.0	0.9633
453.2	0.96524
453.4	0.96726
453.6	0.96941
453.8	0.9715
454.0	0.97256
454.2	0.97463
454.4	0.97539
454.6	0.97394
454.8	0.97339
455.0	0.97063
455.2	0.96853
455.4	0.96565
455.6	0.96418
455.8	0.96354
456.0	0.96162
456.2	0.96297
456.4	0.96397
456.6	0.96365
456.8	0.96516
457.0	0.96541
457.2	0.96292
457.4	0.9633
457.6	0.96127
457.8	0.95983
458.0	0.95694
458.2	0.95514
458.4	0.95479
458.6	0.95124
458.8	0.95071
459.0	0.9498
459.2	0.95108
459.4	0.9553
459.6	0.95409
459.8	0.95686
460.0	0.95913
460.2	0.9617
460.4	0.96304
460.6	0.96527
460.8	0.96425
461.0	0.96481
461.2	0.96349
461.4	0.96225
461.6	0.96167
461.8	0.95967
462.0	0.9603
462.2	0.95975
462.4	0.95903
462.6	0.95626
462.8	0.95391
463.0	0.94987
463.2	0.94271
463.4	0.93387
463.6	0.92379
463.8	0.91088
464.0	0.8947
464.2	0.87604
464.4	0.85695
464.6	0.83743
464.8	0.81447
465.0	0.78591
465.2	0.75317
465.4	0.72316
465.6	0.69454
465.8	0.66438
466.0	0.62951
466.2	0.58955
466.4	0.54426
466.6	0.49136
466.8	0.4333
467.0	0.37119
467.2	0.30937
467.4	0.24936
467.6	0.19439
467.8	0.14747
468.0	0.11
468.2	0.08146
468.4	0.06048
468.6	0.0456
468.8	0.0349
469.0	0.02735
469.2	0.02175
469.4	0.01777
469.6	0.01475
469.8	0.01253
470.0	0.01088
470.2	0.00961
470.4	0.00866
470.6	0.0081
470.8	0.00748
471.0	0.00717
471.2	0.0071
471.4	0.00707
471.6	0.00708
471.8	0.00724
472.0	0.00755
472.2	0.00776
472.4	0.00809
472.6	0.00814
472.8	0.00818
473.0	0.00792
473.2	0.00747
473.4	0.0069
473.6	0.00612
473.8	0.00538
474.0	0.00456
474.2	0.00373
474.4	0.00322
474.6	0.00259
474.8	0.00219
475.0	0.00177
475.2	0.00146
475.4	0.00124
475.6	0.00114
475.8	0.001
476.0	9.4337e-04
476.2	8.3288e-04
476.4	8.0151e-04
476.6	7.8217e-04
476.8	7.9207e-04
477.0	7.9505e-04
477.2	8.2364e-04
477.4	8.5117e-04
477.6	9.4515e-04
477.8	0.00104
478.0	0.00121
478.2	0.0015
478.4	0.00196
478.6	0.00264
478.8	0.00355
479.0	0.00455
479.2	0.00534
479.4	0.00574
479.6	0.00601
479.8	0.00579
480.0	0.0053
480.2	0.00449
480.4	0.0036
480.6	0.00257
480.8	0.00171
481.0	0.00117
481.2	7.9006e-04
481.4	6.4258e-04
481.6	4.8458e-04
481.8	4.4034e-04
482.0	3.8211e-04
482.2	3.0989e-04
482.4	2.7534e-04
482.6	3.0238e-04
482.8	2.9307e-04
483.0	2.6599e-04
483.2	2.6061e-04
483.4	2.3526e-04
483.6	2.0613e-04
483.8	1.9879e-04
484.0	1.8079e-04
484.2	1.8731e-04
484.4	2.1563e-04
484.6	2.0201e-04
484.8	2.4619e-04
485.0	1.9805e-04
485.2	2.0738e-04
485.4	2.3849e-04
485.6	2.2083e-04
485.8	2.6409e-04
486.0	2.6055e-04
486.2	2.6806e-04
486.4	2.8583e-04
486.6	3.1772e-04
486.8	3.3213e-04
487.0	3.7371e-04
487.2	4.2569e-04
487.4	4.3911e-04
487.6	5.1113e-04
487.8	5.9044e-04
488.0	7.0672e-04
488.2	8.6559e-04
488.4	9.7384e-04
488.6	0.00117
488.8	0.00147
489.0	0.00179
489.2	0.00231
489.4	0.00292
489.6	0.0036
489.8	0.00439
490.0	0.00527
490.2	0.00627
490.4	0.00728
490.6	0.00828
490.8	0.00921
491.0	0.01006
491.2	0.01077
491.4	0.01147
491.6	0.01205
491.8	0.01254
492.0	0.01307
492.2	0.01363
492.4	0.0142
492.6	0.01514
492.8	0.01624
493.0	0.01774
493.2	0.0197
493.4	0.02229
493.6	0.0256
493.8	0.02981
494.0	0.03524
494.2	0.04231
494.4	0.05155
494.6	0.06347
494.8	0.07799
495.0	0.09664
495.2	0.11939
495.4	0.14574
495.6	0.17584
495.8	0.20886
496.0	0.24321
496.2	0.27887
496.4	0.31347
496.6	0.34767
496.8	0.37897
497.0	0.40656
497.2	0.42983
497.4	0.44861
497.6	0.4643
497.8	0.47763
498.0	0.48711
498.2	0.49439
498.4	0.50046
498.6	0.50607
498.8	0.51113
499.0	0.51641
499.2	0.52128
499.4	0.52768
499.6	0.53564
499.8	0.54689
500.0	0.56455
500.2	0.58857
500.4	0.62034
500.6	0.65989
500.8	0.70416
501.0	0.75065
501.2	0.79679
501.4	0.83979
501.6	0.87729
501.8	0.90575
502.0	0.92573
502.2	0.93906
502.4	0.94749
502.6	0.9524
502.8	0.95576
503.0	0.95786
503.2	0.9593
503.4	0.96317
503.6	0.96387
503.8	0.96469
504.0	0.96105
504.2	0.95808
504.4	0.95476
504.6	0.95035
504.8	0.94635
505.0	0.94589
505.2	0.9464
505.4	0.94691
505.6	0.94742
505.8	0.94793
506.0	0.94843
506.2	0.94894
506.4	0.94945
506.6	0.94996
506.8	0.95047
507.0	0.95098
507.2	0.95149
507.4	0.952
507.6	0.95251
507.8	0.95302
508.0	0.95353
508.2	0.95404
508.4	0.95455
508.6	0.95506
508.8	0.95557
509.0	0.95608
509.2	0.95659
509.4	0.95709
509.6	0.9576
509.8	0.95811
510.0	0.95862
510.2	0.95962
510.4	0.9599
510.6	0.95927
510.8	0.9604
511.0	0.95983
511.2	0.95889
511.4	0.95783
511.6	0.95742
511.8	0.95807
512.0	0.96035
512.2	0.96091
512.4	0.96164
512.6	0.96261
512.8	0.96401
513.0	0.96409
513.2	0.96491
513.4	0.96494
513.6	0.96415
513.8	0.96454
514.0	0.96431
514.2	0.96306
514.4	0.96204
514.6	0.96184
514.8	0.95951
515.0	0.95789
515.2	0.95702
515.4	0.95927
515.6	0.95928
515.8	0.95941
516.0	0.96007
516.2	0.96147
516.4	0.96159
516.6	0.96236
516.8	0.96468
517.0	0.96803
517.2	0.96772
517.4	0.96737
517.6	0.97027
517.8	0.97009
518.0	0.97041
518.2	0.97037
518.4	0.96856
518.6	0.9684
518.8	0.9678
519.0	0.96857
519.2	0.96626
519.4	0.96538
519.6	0.9649
519.8	0.96629
520.0	0.96442
520.2	0.96335
520.4	0.96341
520.6	0.96165
520.8	0.96017
521.0	0.95994
521.2	0.96005
521.4	0.95949
521.6	0.95894
521.8	0.95565
522.0	0.95457
522.2	0.9556
522.4	0.95524
522.6	0.95461
522.8	0.95278
523.0	0.9536
523.2	0.95485
523.4	0.95456
523.6	0.95262
523.8	0.95107
524.0	0.94573
524.2	0.93738
524.4	0.92618
524.6	0.90997
524.8	0.88778
525.0	0.85909
525.2	0.82379
525.4	0.78391
525.6	0.73701
525.8	0.68538
526.0	0.62987
526.2	0.57173
526.4	0.51226
526.6	0.45227
526.8	0.39464
527.0	0.33864
527.2	0.2866
527.4	0.23961
527.6	0.19862
527.8	0.16246
528.0	0.1323
528.2	0.10759
528.4	0.08761
528.6	0.07175
528.8	0.05925
529.0	0.04939
529.2	0.04172
529.4	0.03564
529.6	0.03049
529.8	0.02632
530.0	0.02315
530.2	0.02071
530.4	0.01864
530.6	0.01694
530.8	0.01559
531.0	0.01443
531.2	0.01346
531.4	0.01264
531.6	0.01195
531.8	0.01143
532.0	0.01099
532.2	0.01062
532.4	0.01038
532.6	0.0102
532.8	0.01004
533.0	0.01001
533.2	0.00999
533.4	0.01008
533.6	0.01022
533.8	0.01046
534.0	0.0107
534.2	0.01103
534.4	0.01148
534.6	0.01206
534.8	0.01267
535.0	0.01352
535.2	0.01437
535.4	0.01546
535.6	0.01664
535.8	0.01813
536.0	0.01984
536.2	0.02191
536.4	0.02432
536.6	0.02716
536.8	0.03053
537.0	0.03455
537.2	0.03943
537.4	0.04531
537.6	0.0523
537.8	0.06071
538.0	0.07077
538.2	0.08266
538.4	0.09683
538.6	0.11357
538.8	0.13312
539.0	0.15533
539.2	0.18037
539.4	0.20784
539.6	0.2371
539.8	0.26771
540.0	0.30077
540.2	0.33045
540.4	0.36
540.6	0.3881
540.8	0.41296
541.0	0.43458
541.2	0.4526
541.4	0.46628
541.6	0.47703
541.8	0.48697
542.0	0.49394
542.2	0.49916
542.4	0.50295
542.6	0.50705
542.8	0.51186
543.0	0.51615
543.2	0.52255
543.4	0.53179
543.6	0.54506
543.8	0.56053
544.0	0.58215
544.2	0.6074
544.4	0.63658
544.6	0.67212
544.8	0.71003
545.0	0.75015
545.2	0.79164
545.4	0.82986
545.6	0.86505
545.8	0.89579
546.0	0.92083
546.2	0.93917
546.4	0.95382
546.6	0.96066
546.8	0.9632
547.0	0.96256
547.2	0.96171
547.4	0.9606
547.6	0.95889
547.8	0.95653
548.0	0.95575
548.2	0.95674
548.4	0.95571
548.6	0.95769
548.8	0.95831
549.0	0.95773
549.2	0.95678
549.4	0.95846
549.6	0.9594
549.8	0.95958
550.0	0.96231
550.2	0.96377
550.4	0.96604
550.6	0.96586
550.8	0.96707
551.0	0.96805
551.2	0.96927
551.4	0.97002
551.6	0.97072
551.8	0.97084
552.0	0.97251
552.2	0.97088
552.4	0.96896
552.6	0.96743
552.8	0.966
553.0	0.96679
553.2	0.96351
553.4	0.96307
553.6	0.96238
553.8	0.96257
554.0	0.96099
554.2	0.96043
554.4	0.96104
554.6	0.96149
554.8	0.9603
555.0	0.96254
555.2	0.96254
555.4	0.96494
555.6	0.96749
555.8	0.96917
556.0	0.97078
556.2	0.97019
556.4	0.97178
556.6	0.9715
556.8	0.9703
557.0	0.96896
557.2	0.96802
557.4	0.96646
557.6	0.96656
557.8	0.96413
558.0	0.96238
558.2	0.96172
558.4	0.95849
558.6	0.95735
558.8	0.95657
559.0	0.95398
559.2	0.95305
559.4	0.95369
559.6	0.95366
559.8	0.95396
560.0	0.9543
560.2	0.9567
560.4	0.95805
560.6	0.96131
560.8	0.96253
561.0	0.96546
561.2	0.96673
561.4	0.96748
561.6	0.96814
561.8	0.97074
562.0	0.97076
562.2	0.97107
562.4	0.97036
562.6	0.97116
562.8	0.97137
563.0	0.97088
563.2	0.96959
563.4	0.96848
563.6	0.96683
563.8	0.96474
564.0	0.96309
564.2	0.96195
564.4	0.96095
564.6	0.96042
564.8	0.95869
565.0	0.95842
565.2	0.95911
565.4	0.96045
565.6	0.96287
565.8	0.96169
566.0	0.96222
566.2	0.96222
566.4	0.9639
566.6	0.96749
566.8	0.96983
567.0	0.96928
567.2	0.97084
567.4	0.97367
567.6	0.97387
567.8	0.97275
568.0	0.97458
568.2	0.97395
568.4	0.97138
568.6	0.97213
568.8	0.97061
569.0	0.9704
569.2	0.97146
569.4	0.9706
569.6	0.96953
569.8	0.96849
570.0	0.96918
570.2	0.96852
570.4	0.96828
570.6	0.96696
570.8	0.96646
571.0	0.96537
571.2	0.9667
571.4	0.96652
571.6	0.96774
571.8	0.96713
572.0	0.96598
572.2	0.96596
572.4	0.96533
572.6	0.96419
572.8	0.96277
573.0	0.96325
573.2	0.96312
573.4	0.96421
573.6	0.96343
573.8	0.96338
574.0	0.96341
574.2	0.9629
574.4	0.9622
574.6	0.96107
574.8	0.96031
575.0	0.95999
575.2	0.95867
575.4	0.95909
575.6	0.95817
575.8	0.95799
576.0	0.95615
576.2	0.95731
576.4	0.9571
576.6	0.96067
576.8	0.96267
577.0	0.96197
577.2	0.96228
577.4	0.96302
577.6	0.96302
577.8	0.96294
578.0	0.96322
578.2	0.96167
578.4	0.96095
578.6	0.96186
578.8	0.96304
579.0	0.96352
579.2	0.96191
579.4	0.96329
579.6	0.96486
579.8	0.96549
580.0	0.96594
580.2	0.9642
580.4	0.96381
580.6	0.96559
580.8	0.96573
581.0	0.96562
581.2	0.96617
581.4	0.9667
581.6	0.96678
581.8	0.96817
582.0	0.96844
582.2	0.96923
582.4	0.97066
582.6	0.97167
582.8	0.9729
583.0	0.97382
583.2	0.97493
583.4	0.97523
583.6	0.97339
583.8	0.97203
584.0	0.9703
584.2	0.97136
584.4	0.96932
584.6	0.96694
584.8	0.96636
585.0	0.96549
585.2	0.96311
585.4	0.96028
585.6	0.95897
585.8	0.95783
586.0	0.95505
586.2	0.95553
586.4	0.95466
586.6	0.95441
586.8	0.9542
587.0	0.95519
587.2	0.95681
587.4	0.95938
587.6	0.96148
587.8	0.96247
588.0	0.96445
588.2	0.96731
588.4	0.96939
588.6	0.96964
588.8	0.97204
589.0	0.97346
589.2	0.97515
589.4	0.97393
589.6	0.97373
589.8	0.97501
590.0	0.97345
590.2	0.97024
590.4	0.9695
590.6	0.96983
590.8	0.9685
591.0	0.96692
591.2	0.96388
591.4	0.96193
591.6	0.95818
591.8	0.95576
592.0	0.95681
592.2	0.95313
592.4	0.95057
592.6	0.94925
592.8	0.94862
593.0	0.94893
593.2	0.94963
593.4	0.94878
593.6	0.94941
593.8	0.95126
594.0	0.95253
594.2	0.95233
594.4	0.9528
594.6	0.95525
594.8	0.96008
595.0	0.96061
595.2	0.96274
595.4	0.96572
595.6	0.96637
595.8	0.96679
596.0	0.96859
596.2	0.96987
596.4	0.97102
596.6	0.97097
596.8	0.97112
597.0	0.96929
597.2	0.9687
597.4	0.96684
597.6	0.96504
597.8	0.96286
598.0	0.96143
598.2	0.96084
598.4	0.95801
598.6	0.95641
598.8	0.95405
599.0	0.9532
599.2	0.95398
599.4	0.95487
599.6	0.95441
599.8	0.9565
600.0	0.95716
600.2	0.95769
600.4	0.95904
600.6	0.96202
600.8	0.96351
601.0	0.96637
601.2	0.9679
601.4	0.97063
601.6	0.97282
601.8	0.97308
602.0	0.9764
602.2	0.97689
602.4	0.97856
602.6	0.97907
602.8	0.97929
603.0	0.98025
603.2	0.9779
603.4	0.97464
603.6	0.97295
603.8	0.97016
604.0	0.96893
604.2	0.9675
604.4	0.96567
604.6	0.9638
604.8	0.96201
605.0	0.95967
605.2	0.96066
605.4	0.96031
605.6	0.95973
605.8	0.95813
606.0	0.95809
606.2	0.95878
606.4	0.95889
606.6	0.95981
606.8	0.96067
607.0	0.96241
607.2	0.96494
607.4	0.96526
607.6	0.96645
607.8	0.96743
608.0	0.96645
608.2	0.96765
608.4	0.96738
608.6	0.96629
608.8	0.96659
609.0	0.96531
609.2	0.96766
609.4	0.96676
609.6	0.96493
609.8	0.96316
610.0	0.96354
610.2	0.96315
610.4	0.96358
610.6	0.96091
610.8	0.95842
611.0	0.95852
611.2	0.9597
611.4	0.9584
611.6	0.9571
611.8	0.95605
612.0	0.95635
612.2	0.95727
612.4	0.95724
612.6	0.95946
612.8	0.96024
613.0	0.9608
613.2	0.96112
613.4	0.9619
613.6	0.96171
613.8	0.96016
614.0	0.96058
614.2	0.96165
614.4	0.96216
614.6	0.96143
614.8	0.9624
615.0	0.96302
615.2	0.96328
615.4	0.96301
615.6	0.96555
615.8	0.96479
616.0	0.96649
616.2	0.96467
616.4	0.96507
616.6	0.96451
616.8	0.96584
617.0	0.96807
617.2	0.96699
617.4	0.96808
617.6	0.96518
617.8	0.96244
618.0	0.95773
618.2	0.95226
618.4	0.94795
618.6	0.93811
618.8	0.92791
619.0	0.91594
619.2	0.89929
619.4	0.88425
619.6	0.86824
619.8	0.85074
620.0	0.83377
620.2	0.81538
620.4	0.79765
620.6	0.77967
620.8	0.76269
621.0	0.74556
621.2	0.72682
621.4	0.70801
621.6	0.69071
621.8	0.67376
622.0	0.65358
622.2	0.63174
622.4	0.60761
622.6	0.58243
622.8	0.5539
623.0	0.52353
623.2	0.49132
623.4	0.45811
623.6	0.42353
623.8	0.38867
624.0	0.35455
624.2	0.3207
624.4	0.28775
624.6	0.25773
624.8	0.22975
625.0	0.2042
625.2	0.18093
625.4	0.15993
625.6	0.14123
625.8	0.12481
626.0	0.11021
626.2	0.09786
626.4	0.0868
626.6	0.07742
626.8	0.06925
627.0	0.06226
627.2	0.05618
627.4	0.05115
627.6	0.04582
627.8	0.04127
628.0	0.03798
628.2	0.03503
628.4	0.03249
628.6	0.03028
628.8	0.02839
629.0	0.02671
629.2	0.02525
629.4	0.02391
629.6	0.02274
629.8	0.0217
630.0	0.02085
630.2	0.0201
630.4	0.01941
630.6	0.01889
630.8	0.01843
631.0	0.01809
631.2	0.01775
631.4	0.01742
631.6	0.01724
631.8	0.01703
632.0	0.01695
632.2	0.01703
632.4	0.01707
632.6	0.01702
632.8	0.01708
633.0	0.01716
633.2	0.01727
633.4	0.01746
633.6	0.0176
633.8	0.0178
634.0	0.01801
634.2	0.0181
634.4	0.01819
634.6	0.01834
634.8	0.01842
635.0	0.01843
635.2	0.01837
635.4	0.0182
635.6	0.018
635.8	0.01776
636.0	0.0174
636.2	0.01701
636.4	0.0165
636.6	0.01605
636.8	0.01552
637.0	0.01496
637.2	0.01437
637.4	0.01375
637.6	0.01313
637.8	0.01253
638.0	0.01193
638.2	0.01145
638.4	0.01089
638.6	0.01037
638.8	0.00986
639.0	0.00943
639.2	0.00893
639.4	0.00851
639.6	0.0081
639.8	0.00771
640.0	0.00731
640.2	0.00691
640.4	0.0066
640.6	0.00625
640.8	0.00594
641.0	0.00564
641.2	0.00535
641.4	0.00502
641.6	0.00485
641.8	0.00467
642.0	0.0045
642.2	0.00432
642.4	0.00421
642.6	0.00405
642.8	0.00395
643.0	0.00385
643.2	0.00383
643.4	0.00373
643.6	0.00373
643.8	0.00365
644.0	0.00365
644.2	0.00369
644.4	0.00367
644.6	0.00365
644.8	0.00368
645.0	0.0037
645.2	0.00374
645.4	0.00376
645.6	0.00389
645.8	0.00393
646.0	0.00402
646.2	0.00415
646.4	0.00428
646.6	0.00442
646.8	0.00455
647.0	0.00471
647.2	0.00497
647.4	0.00525
647.6	0.00545
647.8	0.00572
648.0	0.00605
648.2	0.00636
648.4	0.00678
648.6	0.00719
648.8	0.00761
649.0	0.0081
649.2	0.00871
649.4	0.00932
649.6	0.0101
649.8	0.0109
650.0	0.01185
650.2	0.01292
650.4	0.01409
650.6	0.01547
650.8	0.01715
651.0	0.01895
651.2	0.02101
651.4	0.02345
651.6	0.02624
651.8	0.02941
652.0	0.03322
652.2	0.03761
652.4	0.04258
652.6	0.04839
652.8	0.05519
653.0	0.06346
653.2	0.07293
653.4	0.08406
653.6	0.09669
653.8	0.11082
654.0	0.12765
654.2	0.14607
654.4	0.16684
654.6	0.18974
654.8	0.21454
655.0	0.24008
655.2	0.26677
655.4	0.29367
655.6	0.32024
655.8	0.34588
656.0	0.37071
656.2	0.39388
656.4	0.41474
656.6	0.43321
656.8	0.44893
657.0	0.46335
657.2	0.47431
657.4	0.47988
657.6	0.48342
657.8	0.48646
658.0	0.48768
658.2	0.4877
658.4	0.48481
658.6	0.48551
658.8	0.48505
659.0	0.48412
659.2	0.48391
659.4	0.48214
659.6	0.48211
659.8	0.48344
660.0	0.48679
660.2	0.49098
660.4	0.4952
660.6	0.49945
660.8	0.50521
661.0	0.51293
661.2	0.51997
661.4	0.52917
661.6	0.54033
661.8	0.5533
662.0	0.56784
662.2	0.58801
662.4	0.60772
662.6	0.63134
662.8	0.65753
663.0	0.68741
663.2	0.71854
663.4	0.74943
663.6	0.77953
663.8	0.81031
664.0	0.83881
664.2	0.86315
664.4	0.88427
664.6	0.90079
664.8	0.91392
665.0	0.92437
665.2	0.93254
665.4	0.93588
665.6	0.93727
665.8	0.94093
666.0	0.94261
666.2	0.94364
666.4	0.94357
666.6	0.94503
666.8	0.94622
667.0	0.9473
667.2	0.94956
667.4	0.95155
667.6	0.95279
667.8	0.95464
668.0	0.95501
668.2	0.95763
668.4	0.95718
668.6	0.95775
668.8	0.95844
669.0	0.95675
669.2	0.95512
669.4	0.95347
669.6	0.95194
669.8	0.94972
670.0	0.94766
670.2	0.94565
670.4	0.94519
670.6	0.94499
670.8	0.94463
671.0	0.9447
671.2	0.94553
671.4	0.94441
671.6	0.94467
671.8	0.94652
672.0	0.94745
672.2	0.94855
672.4	0.94977
672.6	0.95226
672.8	0.95297
673.0	0.95344
673.2	0.95416
673.4	0.95442
673.6	0.95752
673.8	0.96026
674.0	0.9616
674.2	0.96189
674.4	0.96273
674.6	0.96477
674.8	0.96339
675.0	0.96189
675.2	0.96033
675.4	0.95943
675.6	0.95845
675.8	0.95558
676.0	0.95664
676.2	0.95807
676.4	0.95642
676.6	0.95573
676.8	0.95301
677.0	0.95192
677.2	0.95112
677.4	0.95185
677.6	0.95226
677.8	0.95418
678.0	0.95258
678.2	0.95356
678.4	0.95575
678.6	0.95553
678.8	0.95842
679.0	0.95975
679.2	0.96147
679.4	0.96154
679.6	0.9614
679.8	0.9607
680.0	0.96163
680.2	0.96386
680.4	0.96647
680.6	0.96658
680.8	0.96585
681.0	0.96474
681.2	0.96465
681.4	0.96371
681.6	0.96357
681.8	0.96261
682.0	0.96139
682.2	0.96212
682.4	0.96363
682.6	0.96243
682.8	0.96172
683.0	0.96251
683.2	0.96075
683.4	0.95967
683.6	0.96045
683.8	0.95955
684.0	0.96039
684.2	0.96033
684.4	0.96096
684.6	0.9615
684.8	0.96098
685.0	0.96004
685.2	0.96243
685.4	0.96287
685.6	0.96146
685.8	0.96147
686.0	0.96317
686.2	0.96579
686.4	0.96922
686.6	0.96964
686.8	0.96954
687.0	0.96794
687.2	0.96851
687.4	0.96967
687.6	0.97021
687.8	0.97202
688.0	0.97433
688.2	0.97339
688.4	0.97513
688.6	0.97448
688.8	0.97335
689.0	0.97355
689.2	0.97271
689.4	0.97006
689.6	0.97111
689.8	0.97131
690.0	0.96908
690.2	0.96493
690.4	0.96277
690.6	0.96194
690.8	0.96032
691.0	0.95893
691.2	0.95987
691.4	0.95935
691.6	0.95783
691.8	0.95611
692.0	0.95569
692.2	0.95772
692.4	0.95856
692.6	0.95997
692.8	0.95831
693.0	0.95684
693.2	0.95707
693.4	0.9578
693.6	0.95789
693.8	0.95937
694.0	0.96259
694.2	0.96478
694.4	0.96505
694.6	0.96719
694.8	0.96602
695.0	0.96669
695.2	0.96878
695.4	0.97031
695.6	0.96953
695.8	0.96968
696.0	0.9702
696.2	0.96945
696.4	0.97167
696.6	0.97434
696.8	0.97426
697.0	0.97507
697.2	0.97389
697.4	0.97278
697.6	0.97023
697.8	0.97061
698.0	0.97106
698.2	0.97201
698.4	0.96959
698.6	0.96946
698.8	0.96753
699.0	0.96733
699.2	0.96628
699.4	0.96652
699.6	0.9674
699.8	0.96502
700.0	0.96395
700.2	0.96309
700.4	0.9614
700.6	0.95985
700.8	0.95882
701.0	0.95894
701.2	0.96018
701.4	0.95636
701.6	0.95594
701.8	0.95551
702.0	0.9555
702.2	0.95762
702.4	0.95803
702.6	0.95801
702.8	0.95822
703.0	0.96105
703.2	0.96384
703.4	0.9631
703.6	0.96471
703.8	0.96492
704.0	0.96809
704.2	0.9722
704.4	0.9731
704.6	0.97383
704.8	0.97433
705.0	0.97648
705.2	0.97612
705.4	0.97789
705.6	0.97825
705.8	0.97511
706.0	0.97609
706.2	0.97883
706.4	0.97769
706.6	0.97787
706.8	0.97864
707.0	0.9751
707.2	0.97251
707.4	0.97446
707.6	0.97134
707.8	0.96921
708.0	0.96712
708.2	0.96563
708.4	0.96353
708.6	0.96086
708.8	0.95952
709.0	0.96138
709.2	0.96081
709.4	0.95874
709.6	0.95711
709.8	0.95611
710.0	0.95592
710.2	0.95498
710.4	0.95363
710.6	0.95404
710.8	0.95297
711.0	0.95165
711.2	0.95245
711.4	0.95171
711.6	0.9524
711.8	0.95244
712.0	0.95498
712.2	0.95697
712.4	0.95657
712.6	0.95908
712.8	0.96065
713.0	0.96365
713.2	0.96481
713.4	0.96485
713.6	0.96821
713.8	0.96964
714.0	0.97053
714.2	0.97192
714.4	0.97494
714.6	0.97503
714.8	0.97516
715.0	0.97618
715.2	0.97766
715.4	0.97911
715.6	0.97948
715.8	0.9774
716.0	0.97808
716.2	0.97475
716.4	0.97533
716.6	0.97715
716.8	0.98006
717.0	0.98013
717.2	0.97964
717.4	0.97707
717.6	0.97391
717.8	0.97348
718.0	0.97076
718.2	0.96842
718.4	0.96695
718.6	0.96743
718.8	0.96421
719.0	0.96264
719.2	0.96365
719.4	0.96197
719.6	0.95935
719.8	0.95837
720.0	0.95861
720.2	0.95933
720.4	0.96113
720.6	0.96184
720.8	0.96216
721.0	0.96146
721.2	0.96019
721.4	0.96079
721.6	0.96413
721.8	0.96491
722.0	0.96553
722.2	0.96677
722.4	0.96607
722.6	0.96895
722.8	0.96853
723.0	0.96736
723.2	0.96828
723.4	0.9677
723.6	0.96594
723.8	0.96653
724.0	0.96632
724.2	0.97039
724.4	0.97136
724.6	0.97266
724.8	0.97354
725.0	0.9768
725.2	0.97921
725.4	0.98266
725.6	0.98191
725.8	0.98254
726.0	0.98251
726.2	0.98103
726.4	0.98088
726.6	0.97968
726.8	0.97967
727.0	0.97772
727.2	0.97768
727.4	0.97724
727.6	0.97673
727.8	0.97509
728.0	0.97439
728.2	0.97123
728.4	0.97176
728.6	0.9695
728.8	0.96835
729.0	0.96757
729.2	0.96718
729.4	0.96874
729.6	0.97012
729.8	0.96894
730.0	0.96665
730.2	0.96819
730.4	0.96616
730.6	0.96354
730.8	0.96293
731.0	0.96582
731.2	0.96821
731.4	0.96887
731.6	0.96762
731.8	0.96696
732.0	0.96663
732.2	0.96719
732.4	0.96805
732.6	0.96733
732.8	0.96687
733.0	0.96743
733.2	0.96627
733.4	0.96714
733.6	0.96931
733.8	0.96884
734.0	0.96903
734.2	0.96724
734.4	0.96667
734.6	0.96639
734.8	0.96703
735.0	0.96769
735.2	0.97116
735.4	0.97
735.6	0.96802
735.8	0.96889
736.0	0.96842
736.2	0.97031
736.4	0.9707
736.6	0.97177
736.8	0.96923
737.0	0.9691
737.2	0.96977
737.4	0.97014
737.6	0.97067
737.8	0.9703
738.0	0.97023
738.2	0.96751
738.4	0.96937
738.6	0.968
738.8	0.96836
739.0	0.96761
739.2	0.96737
739.4	0.96901
739.6	0.96963
739.8	0.96716
740.0	0.96584
740.2	0.96613
740.4	0.96673
740.6	0.96646
740.8	0.96561
741.0	0.9636
741.2	0.9634
741.4	0.96348
741.6	0.96402
741.8	0.96337
742.0	0.96343
742.2	0.9632
742.4	0.96565
742.6	0.96488
742.8	0.963
743.0	0.96441
743.2	0.96645
743.4	0.96759
743.6	0.96774
743.8	0.9687
744.0	0.96767
744.2	0.96711
744.4	0.96734
744.6	0.96792
744.8	0.9701
745.0	0.96998
745.2	0.97155
745.4	0.97247
745.6	0.97259
745.8	0.97197
746.0	0.97269
746.2	0.97241
746.4	0.97111
746.6	0.97181
746.8	0.97236
747.0	0.97182
747.2	0.97308
747.4	0.97473
747.6	0.97444
747.8	0.9744
748.0	0.97387
748.2	0.97349
748.4	0.97257
748.6	0.97213
748.8	0.97157
749.0	0.97198
749.2	0.97325
749.4	0.97207
749.6	0.97044
749.8	0.97132
750.0	0.97184
750.2	0.97074
750.4	0.96888
750.6	0.96911
750.8	0.97029
751.0	0.9685
751.2	0.96701
751.4	0.96819
751.6	0.9699
751.8	0.97044
752.0	0.97138
752.2	0.97232
752.4	0.97344
752.6	0.97195
752.8	0.96927
753.0	0.96776
753.2	0.96739
753.4	0.96836
753.6	0.96958
753.8	0.96964
754.0	0.97094
754.2	0.97152
754.4	0.97244
754.6	0.97151
754.8	0.97066
755.0	0.97096
755.2	0.97274
755.4	0.97091
755.6	0.97058
755.8	0.97437
756.0	0.97864
756.2	0.9778
756.4	0.97551
756.6	0.97531
756.8	0.97473
757.0	0.97415
757.2	0.97486
757.4	0.9728
757.6	0.96956
757.8	0.9694
758.0	0.97122
758.2	0.97405
758.4	0.9747
758.6	0.97294
758.8	0.96985
759.0	0.96993
759.2	0.96967
759.4	0.96744
759.6	0.96623
759.8	0.96655
760.0	0.96532
760.2	0.96475
760.4	0.96738
760.6	0.96833
760.8	0.96951
761.0	0.97125
761.2	0.97196
761.4	0.97068
761.6	0.96988
761.8	0.97076
762.0	0.9689
762.2	0.96609
762.4	0.96647
762.6	0.96938
762.8	0.97017
763.0	0.97102
763.2	0.96831
763.4	0.97148
763.6	0.97138
763.8	0.97197
764.0	0.97275
764.2	0.96996
764.4	0.96877
764.6	0.96776
764.8	0.96977
765.0	0.97188
765.2	0.97099
765.4	0.97149
765.6	0.97239
765.8	0.97421
766.0	0.97263
766.2	0.97025
766.4	0.97115
766.6	0.97004
766.8	0.96887
767.0	0.96876
767.2	0.96997
767.4	0.97163
767.6	0.9728
767.8	0.97067
768.0	0.97087
768.2	0.96901
768.4	0.96668
768.6	0.96386
768.8	0.96283
769.0	0.96256
769.2	0.96583
769.4	0.96548
769.6	0.96522
769.8	0.96541
770.0	0.96625
770.2	0.96603
770.4	0.96405
770.6	0.96324
770.8	0.96246
771.0	0.96359
771.2	0.96265
771.4	0.96124
771.6	0.96237
771.8	0.96071
772.0	0.96159
772.2	0.96359
772.4	0.96505
772.6	0.9657
772.8	0.96495
773.0	0.96441
773.2	0.96524
773.4	0.96548
773.6	0.96413
773.8	0.96331
774.0	0.96609
774.2	0.96952
774.4	0.96966
774.6	0.97177
774.8	0.9727
775.0	0.97104
775.2	0.9701
775.4	0.97087
775.6	0.97248
775.8	0.97308
776.0	0.97358
776.2	0.97411
776.4	0.97393
776.6	0.97464
776.8	0.97652
777.0	0.97717
777.2	0.97507
777.4	0.97461
777.6	0.97542
777.8	0.97487
778.0	0.97521
778.2	0.97747
778.4	0.97594
778.6	0.97224
778.8	0.97007
779.0	0.9709
779.2	0.97004
779.4	0.96888
779.6	0.96857
779.8	0.96898
780.0	0.9689
780.2	0.96992
780.4	0.96861
780.6	0.96948
780.8	0.96995
781.0	0.96871
781.2	0.96868
781.4	0.96989
781.6	0.96726
781.8	0.96633
782.0	0.96517
782.2	0.96504
782.4	0.96442
782.6	0.9656
782.8	0.96626
783.0	0.96566
783.2	0.96473
783.4	0.9652
783.6	0.96764
783.8	0.96802
784.0	0.96834
784.2	0.96642
784.4	0.96601
784.6	0.96673
784.8	0.9674
785.0	0.96545
785.2	0.96443
785.4	0.96545
785.6	0.96785
785.8	0.96977
786.0	0.96839
786.2	0.96919
786.4	0.96973
786.6	0.96957
786.8	0.96925
787.0	0.96978
787.2	0.96954
787.4	0.96901
787.6	0.97042
787.8	0.97078
788.0	0.96799
788.2	0.96839
788.4	0.96736
788.6	0.96837
788.8	0.96793
789.0	0.96603
789.2	0.96553
789.4	0.96459
789.6	0.9635
789.8	0.96345
790.0	0.96509
790.2	0.96548
790.4	0.96612
790.6	0.9667
790.8	0.96761
791.0	0.96597
791.2	0.96432
791.4	0.96086
791.6	0.96048
791.8	0.96118
792.0	0.95938
792.2	0.95903
792.4	0.95785
792.6	0.95733
792.8	0.95482
793.0	0.95573
793.2	0.95561
793.4	0.95749
793.6	0.9577
793.8	0.9559
794.0	0.9562
794.2	0.95932
794.4	0.96076
794.6	0.96241
794.8	0.96145
795.0	0.95995
795.2	0.95881
795.4	0.95948
795.6	0.96059
795.8	0.9604
796.0	0.96134
796.2	0.96057
796.4	0.96228
796.6	0.96332
796.8	0.96818
797.0	0.96778
797.2	0.96738
797.4	0.96757
797.6	0.96815
797.8	0.96859
798.0	0.97326
798.2	0.97584
798.4	0.97709
798.6	0.97636
798.8	0.97488
799.0	0.97334
799.2	0.9752
799.4	0.97483
799.6	0.97343
799.8	0.97799
800.0	0.97819
800.2	0.978
800.4	0.97779
800.6	0.97626
800.8	0.97627
801.0	0.9742
801.2	0.97465
801.4	0.97529
801.6	0.97781
801.8	0.97974
802.0	0.97937
802.2	0.9796
802.4	0.98062
802.6	0.98156
802.8	0.98116
803.0	0.98115
803.2	0.98088
803.4	0.98002
803.6	0.97914
803.8	0.97751
804.0	0.97612
804.2	0.97568
804.4	0.97505
804.6	0.97346
804.8	0.97171
805.0	0.97143
805.2	0.97099
805.4	0.97046
805.6	0.96893
805.8	0.96848
806.0	0.96685
806.2	0.96429
806.4	0.96457
806.6	0.96522
806.8	0.96353
807.0	0.96405
807.2	0.96432
807.4	0.96445
807.6	0.96555
807.8	0.96556
808.0	0.96601
808.2	0.96631
808.4	0.96806
808.6	0.96883
808.8	0.96527
809.0	0.96119
809.2	0.96048
809.4	0.96219
809.6	0.96361
809.8	0.96263
810.0	0.96372
810.2	0.96461
810.4	0.96396
810.6	0.96266
810.8	0.96419
811.0	0.966
811.2	0.96588
811.4	0.96354
811.6	0.96454
811.8	0.9655
812.0	0.96379
812.2	0.96418
812.4	0.96563
812.6	0.96794
812.8	0.96822
813.0	0.96924
813.2	0.96854
813.4	0.96841
813.6	0.9699
813.8	0.96948
814.0	0.97012
814.2	0.96877
814.4	0.96946
814.6	0.96683
814.8	0.96855
815.0	0.96995
815.2	0.96917
815.4	0.968
815.6	0.96805
815.8	0.96778
816.0	0.96739
816.2	0.96648
816.4	0.96731
816.6	0.96646
816.8	0.96631
817.0	0.9646
817.2	0.9627
817.4	0.96282
817.6	0.96535
817.8	0.96405
818.0	0.96291
818.2	0.9605
818.4	0.96173
818.6	0.96257
818.8	0.96186
819.0	0.96077
819.2	0.95886
819.4	0.95721
819.6	0.95681
819.8	0.95873
820.0	0.95919
820.2	0.95928
820.4	0.95852
820.6	0.95902
820.8	0.95814
821.0	0.95452
821.2	0.95576
821.4	0.95638
821.6	0.95606
821.8	0.95679
822.0	0.95864
822.2	0.95791
822.4	0.95803
822.6	0.95963
822.8	0.96113
823.0	0.96449
823.2	0.9663
823.4	0.96939
823.6	0.9703
823.8	0.96929
824.0	0.96868
824.2	0.96988
824.4	0.96958
824.6	0.969
824.8	0.9676
825.0	0.96904
825.2	0.96968
825.4	0.96986
825.6	0.971
825.8	0.97166
826.0	0.97259
826.2	0.97581
826.4	0.9787
826.6	0.97946
826.8	0.97819
827.0	0.97723
827.2	0.97693
827.4	0.97829
827.6	0.97859
827.8	0.97664
828.0	0.97617
828.2	0.97792
828.4	0.97967
828.6	0.97776
828.8	0.97286
829.0	0.9722
829.2	0.97254
829.4	0.97444
829.6	0.97271
829.8	0.97367
830.0	0.97293
830.2	0.97215
830.4	0.9699
830.6	0.9702
830.8	0.96975
831.0	0.96928
831.2	0.96731
831.4	0.96589
831.6	0.96387
831.8	0.96427
832.0	0.96545
832.2	0.96482
832.4	0.96434
832.6	0.96378
832.8	0.9637
833.0	0.96405
833.2	0.96177
833.4	0.95935
833.6	0.95891
833.8	0.95987
834.0	0.95854
834.2	0.9571
834.4	0.95576
834.6	0.9561
834.8	0.95674
835.0	0.95739
835.2	0.95665
835.4	0.95665
835.6	0.95533
835.8	0.95615
836.0	0.95697
836.2	0.95856
836.4	0.9583
836.6	0.95848
836.8	0.95958
837.0	0.96022
837.2	0.96218
837.4	0.96229
837.6	0.96117
837.8	0.9613
838.0	0.96169
838.2	0.95999
838.4	0.95901
838.6	0.95902
838.8	0.9613
839.0	0.96432
839.2	0.96584
839.4	0.96567
839.6	0.96635
839.8	0.96608
840.0	0.96886
840.2	0.97086
840.4	0.9712
840.6	0.97125
840.8	0.97055
841.0	0.96823
841.2	0.96749
841.4	0.96807
841.6	0.9677
841.8	0.96778
842.0	0.96627
842.2	0.96558
842.4	0.96415
842.6	0.96063
842.8	0.96042
843.0	0.9605
843.2	0.96123
843.4	0.96173
843.6	0.9624
843.8	0.96354
844.0	0.96467
844.2	0.96492
844.4	0.96387
844.6	0.9631
844.8	0.96413
845.0	0.96447
845.2	0.96265
845.4	0.96544
845.6	0.96428
845.8	0.96026
846.0	0.95826
846.2	0.95814
846.4	0.95828
846.6	0.95686
846.8	0.95628
847.0	0.9556
847.2	0.95336
847.4	0.95121
847.6	0.95284
847.8	0.95671
848.0	0.96015
848.2	0.95841
848.4	0.95626
848.6	0.95578
848.8	0.95602
849.0	0.95474
849.2	0.95596
849.4	0.95462
849.6	0.95519
849.8	0.95706
850.0	0.95792
850.2	0.95726
850.4	0.95665
850.6	0.95785
850.8	0.95852
851.0	0.96064
851.2	0.9624
851.4	0.96168
851.6	0.96171
851.8	0.96088
852.0	0.9605
852.2	0.96115
852.4	0.96348
852.6	0.9653
852.8	0.96586
853.0	0.96753
853.2	0.96772
853.4	0.96736
853.6	0.96823
853.8	0.96954
854.0	0.96834
854.2	0.9695
854.4	0.96921
854.6	0.96797
854.8	0.9697
855.0	0.97082
855.2	0.9708
855.4	0.97316
855.6	0.9756
855.8	0.9774
856.0	0.97828
856.2	0.97887
856.4	0.97762
856.6	0.97776
856.8	0.97664
857.0	0.97608
857.2	0.97495
857.4	0.97364
857.6	0.97335
857.8	0.97144
858.0	0.97096
858.2	0.97015
858.4	0.96951
858.6	0.97121
858.8	0.97098
859.0	0.97105
859.2	0.96934
859.4	0.96536
859.6	0.96284
859.8	0.96265
860.0	0.96132
860.2	0.96156
860.4	0.96312
860.6	0.96405
860.8	0.96282
861.0	0.96276
861.2	0.96306
861.4	0.96259
861.6	0.96238
861.8	0.96328
862.0	0.96444
862.2	0.96344
862.4	0.96175
862.6	0.95844
862.8	0.96067
863.0	0.96201
863.2	0.96366
863.4	0.96235
863.6	0.96137
863.8	0.96146
864.0	0.96253
864.2	0.96182
864.4	0.9607
864.6	0.96249
864.8	0.961
865.0	0.96062
865.2	0.96179
865.4	0.96027
865.6	0.95969
865.8	0.96112
866.0	0.96241
866.2	0.96347
866.4	0.96468
866.6	0.9635
866.8	0.96392
867.0	0.96556
867.2	0.96466
867.4	0.96502
867.6	0.96655
867.8	0.96694
868.0	0.96702
868.2	0.96794
868.4	0.96726
868.6	0.96759
868.8	0.96965
869.0	0.97119
869.2	0.97008
869.4	0.9725
869.6	0.97487
869.8	0.97692
870.0	0.97673
870.2	0.97662
870.4	0.97817
870.6	0.97984
870.8	0.9805
871.0	0.97831
871.2	0.97557
871.4	0.9745
871.6	0.97287
871.8	0.9703
872.0	0.97163
872.2	0.97281
872.4	0.97068
872.6	0.96774
872.8	0.96399
873.0	0.96445
873.2	0.96365
873.4	0.96367
873.6	0.96551
873.8	0.97024
874.0	0.96803
874.2	0.96856
874.4	0.969
874.6	0.96714
874.8	0.96462
875.0	0.9637
875.2	0.96306
875.4	0.96065
875.6	0.95976
875.8	0.95781
876.0	0.95748
876.2	0.95842
876.4	0.9574
876.6	0.95528
876.8	0.95399
877.0	0.9542
877.2	0.95442
877.4	0.95565
877.6	0.95643
877.8	0.95695
878.0	0.95725
878.2	0.9582
878.4	0.95955
878.6	0.95833
878.8	0.95862
879.0	0.959
879.2	0.95626
879.4	0.95561
879.6	0.95496
879.8	0.95581
880.0	0.95706
880.2	0.95713
880.4	0.95832
880.6	0.96042
880.8	0.96094
881.0	0.96219
881.2	0.9627
881.4	0.96191
881.6	0.96324
881.8	0.96435
882.0	0.96484
882.2	0.96492
882.4	0.9673
882.6	0.96712
882.8	0.9664
883.0	0.96775
883.2	0.96609
883.4	0.96507
883.6	0.96445
883.8	0.96643
884.0	0.96917
884.2	0.96824
884.4	0.96616
884.6	0.96507
884.8	0.9658
885.0	0.96819
885.2	0.96904
885.4	0.97175
885.6	0.97294
885.8	0.97327
886.0	0.9734
886.2	0.97344
886.4	0.97257
886.6	0.97292
886.8	0.97395
887.0	0.97278
887.2	0.97202
887.4	0.9716
887.6	0.96961
887.8	0.96886
888.0	0.96852
888.2	0.96563
888.4	0.96514
888.6	0.96365
888.8	0.96204
889.0	0.96028
889.2	0.95994
889.4	0.95924
889.6	0.96015
889.8	0.96176
890.0	0.96262
890.2	0.96478
890.4	0.96685
890.6	0.96898
890.8	0.96989
891.0	0.96861
891.2	0.96506
891.4	0.96201
891.6	0.96234
891.8	0.96108
892.0	0.95841
892.2	0.95742
892.4	0.95853
892.6	0.96019
892.8	0.95863
893.0	0.95617
893.2	0.95501
893.4	0.95528
893.6	0.95569
893.8	0.95438
894.0	0.95381
894.2	0.95635
894.4	0.95672
894.6	0.95612
894.8	0.95596
895.0	0.95407
895.2	0.95428
895.4	0.95534
895.6	0.95638
895.8	0.95612
896.0	0.95505
896.2	0.95512
896.4	0.95589
896.6	0.95808
896.8	0.95864
897.0	0.95864
897.2	0.96062
897.4	0.95994
897.6	0.96103
897.8	0.96401
898.0	0.96458
898.2	0.96482
898.4	0.96513
898.6	0.96461
898.8	0.96431
899.0	0.96493
899.2	0.96626
899.4	0.9676
899.6	0.96732
899.8	0.96751
900.0	0.96766
900.2	0.96527
900.4	0.964
900.6	0.96444
900.8	0.96532
901.0	0.96707
901.2	0.96744
901.4	0.96707
901.6	0.96703
901.8	0.96689
902.0	0.96743
902.2	0.96814
902.4	0.96796
902.6	0.96926
902.8	0.97138
903.0	0.97071
903.2	0.96836
903.4	0.96931
903.6	0.97051
903.8	0.96995
904.0	0.96886
904.2	0.96723
904.4	0.96599
904.6	0.96569
904.8	0.96618
905.0	0.96654
905.2	0.96793
905.4	0.96852
905.6	0.96663
905.8	0.96459
906.0	0.96295
906.2	0.96426
906.4	0.96425
906.6	0.96456
906.8	0.96524
907.0	0.96391
907.2	0.96444
907.4	0.96633
907.6	0.96578
907.8	0.96394
908.0	0.96174
908.2	0.96047
908.4	0.96057
908.6	0.96138
908.8	0.96098
909.0	0.96051
909.2	0.96059
909.4	0.96107
909.6	0.96263
909.8	0.96221
910.0	0.96244
910.2	0.96403
910.4	0.96426
910.6	0.96546
910.8	0.96468
911.0	0.96273
911.2	0.96182
911.4	0.96085
911.6	0.96208
911.8	0.962
912.0	0.96184
912.2	0.96171
912.4	0.96308
912.6	0.96457
912.8	0.96501
913.0	0.96437
913.2	0.96558
913.4	0.96578
913.6	0.96254
913.8	0.96264
914.0	0.96369
914.2	0.96394
914.4	0.96281
914.6	0.96313
914.8	0.96304
915.0	0.96262
915.2	0.96066
915.4	0.96043
915.6	0.96114
915.8	0.96155
916.0	0.96307
916.2	0.96408
916.4	0.96642
916.6	0.96702
916.8	0.96639
917.0	0.96608
917.2	0.96775
917.4	0.96744
917.6	0.96713
917.8	0.96711
918.0	0.96696
918.2	0.96768
918.4	0.96485
918.6	0.96242
918.8	0.96455
919.0	0.9653
919.2	0.96748
919.4	0.97113
919.6	0.97228
919.8	0.97069
920.0	0.97007
920.2	0.97035
920.4	0.96899
920.6	0.96924
920.8	0.96858
921.0	0.97025
921.2	0.97137
921.4	0.97019
921.6	0.97089
921.8	0.97102
922.0	0.97146
922.2	0.9694
922.4	0.96879
922.6	0.97192
922.8	0.97091
923.0	0.9717
923.2	0.97191
923.4	0.97279
923.6	0.97125
923.8	0.9698
924.0	0.96754
924.2	0.9661
924.4	0.96555
924.6	0.9679
924.8	0.96802
925.0	0.96554
925.2	0.9653
925.4	0.96606
925.6	0.9656
925.8	0.96647
926.0	0.96779
926.2	0.96761
926.4	0.96706
926.6	0.97046
926.8	0.9724
927.0	0.97203
927.2	0.97167
927.4	0.97103
927.6	0.9715
927.8	0.96922
928.0	0.96922
928.2	0.97006
928.4	0.97287
928.6	0.97321
928.8	0.97151
929.0	0.96902
929.2	0.96906
929.4	0.97103
929.6	0.9719
929.8	0.97325
930.0	0.97509
930.2	0.97434
930.4	0.97127
930.6	0.97171
930.8	0.97194
931.0	0.97189
931.2	0.96802
931.4	0.96662
931.6	0.96821
931.8	0.97031
932.0	0.96963
932.2	0.96798
932.4	0.9663
932.6	0.96587
932.8	0.9648
933.0	0.96564
933.2	0.96722
933.4	0.9651
933.6	0.96349
933.8	0.96384
934.0	0.96329
934.2	0.96295
934.4	0.963
934.6	0.96256
934.8	0.9641
935.0	0.96426
935.2	0.96484
935.4	0.96183
935.6	0.96445
935.8	0.9628
936.0	0.96072
936.2	0.95902
936.4	0.9612
936.6	0.96338
936.8	0.96276
937.0	0.96517
937.2	0.9653
937.4	0.96464
937.6	0.9651
937.8	0.96327
938.0	0.96476
938.2	0.96486
938.4	0.96698
938.6	0.96552
938.8	0.96472
939.0	0.96347
939.2	0.9624
939.4	0.96087
939.6	0.96099
939.8	0.96216
940.0	0.96443
940.2	0.96374
940.4	0.96253
940.6	0.96189
940.8	0.95879
941.0	0.95691
941.2	0.96059
941.4	0.96223
941.6	0.96251
941.8	0.96305
942.0	0.96369
942.2	0.9644
942.4	0.96643
942.6	0.96961
942.8	0.96909
943.0	0.97062
943.2	0.97045
943.4	0.97185
943.6	0.97302
943.8	0.97096
944.0	0.96784
944.2	0.96627
944.4	0.96635
944.6	0.96651
944.8	0.96461
945.0	0.96503
945.2	0.96556
945.4	0.96389
945.6	0.96569
945.8	0.96678
946.0	0.96511
946.2	0.96423
946.4	0.96626
946.6	0.96654
946.8	0.96641
947.0	0.9655
947.2	0.96744
947.4	0.96863
947.6	0.96932
947.8	0.96923
948.0	0.96803
948.2	0.96495
948.4	0.96107
948.6	0.96105
948.8	0.96096
949.0	0.96237
949.2	0.96326
949.4	0.96278
949.6	0.96466
949.8	0.96548
950.0	0.96823
950.2	0.96935
950.4	0.9693
950.6	0.96668
950.8	0.96437
951.0	0.96535
951.2	0.96489
951.4	0.96298
951.6	0.96232
951.8	0.9609
952.0	0.96011
952.2	0.95956
952.4	0.95954
952.6	0.95959
952.8	0.96025
953.0	0.96152
953.2	0.96268
953.4	0.96303
953.6	0.96237
953.8	0.96343
954.0	0.96394
954.2	0.96408
954.4	0.9621
954.6	0.96187
954.8	0.96025
955.0	0.96078
955.2	0.95971
955.4	0.96028
955.6	0.96086
955.8	0.96088
956.0	0.96179
956.2	0.96273
956.4	0.96454
956.6	0.96437
956.8	0.96144
957.0	0.95928
957.2	0.95779
957.4	0.95903
957.6	0.96061
957.8	0.96023
958.0	0.96173
958.2	0.96206
958.4	0.96402
958.6	0.96131
958.8	0.96102
959.0	0.96188
959.2	0.96153
959.4	0.95994
959.6	0.96062
959.8	0.96209
960.0	0.96439
960.2	0.96594
960.4	0.96705
960.6	0.96605
960.8	0.96623
961.0	0.96383
961.2	0.96118
961.4	0.96117
961.6	0.96189
961.8	0.96082
962.0	0.96073
962.2	0.96297
962.4	0.9666
962.6	0.97068
962.8	0.97304
963.0	0.97398
963.2	0.97228
963.4	0.97077
963.6	0.96967
963.8	0.96839
964.0	0.97091
964.2	0.97047
964.4	0.96938
964.6	0.96798
964.8	0.96863
965.0	0.96956
965.2	0.97082
965.4	0.96969
965.6	0.97132
965.8	0.97117
966.0	0.96875
966.2	0.96658
966.4	0.96563
966.6	0.96524
966.8	0.96595
967.0	0.96506
967.2	0.96344
967.4	0.96161
967.6	0.96332
967.8	0.96386
968.0	0.96686
968.2	0.9707
968.4	0.97171
968.6	0.97172
968.8	0.97049
969.0	0.9695
969.2	0.96967
969.4	0.96828
969.6	0.96582
969.8	0.96503
970.0	0.96359
970.2	0.96363
970.4	0.96249
970.6	0.96419
970.8	0.96516
971.0	0.9644
971.2	0.9656
971.4	0.96847
971.6	0.96779
971.8	0.96662
972.0	0.96453
972.2	0.96242
972.4	0.96048
972.6	0.95936
972.8	0.96052
973.0	0.95977
973.2	0.95915
973.4	0.95887
973.6	0.95944
973.8	0.9596
974.0	0.96024
974.2	0.96294
974.4	0.9637
974.6	0.96321
974.8	0.96273
975.0	0.96219
975.2	0.96341
975.4	0.9628
975.6	0.9618
975.8	0.96119
976.0	0.96158
976.2	0.96113
976.4	0.96001
976.6	0.95879
976.8	0.95938
977.0	0.9619
977.2	0.96393
977.4	0.96462
977.6	0.96364
977.8	0.96341
978.0	0.9646
978.2	0.96733
978.4	0.96839
978.6	0.96799
978.8	0.96701
979.0	0.96737
979.2	0.96764
979.4	0.9672
979.6	0.96722
979.8	0.96598
980.0	0.96626
980.2	0.96598
980.4	0.96547
980.6	0.96591
980.8	0.96605
981.0	0.9661
981.2	0.96453
981.4	0.96361
981.6	0.96463
981.8	0.96582
982.0	0.96627
982.2	0.96723
982.4	0.96664
982.6	0.96658
982.8	0.96783
983.0	0.96836
983.2	0.96912
983.4	0.97062
983.6	0.96936
983.8	0.96717
984.0	0.96615
984.2	0.96603
984.4	0.9652
984.6	0.96477
984.8	0.96425
985.0	0.96322
985.2	0.96429
985.4	0.96442
985.6	0.96534
985.8	0.96457
986.0	0.96472
986.2	0.96472
986.4	0.96536
986.6	0.96677
986.8	0.96749
987.0	0.9654
987.2	0.96432
987.4	0.96403
987.6	0.9628
987.8	0.96208
988.0	0.9599
988.2	0.96114
988.4	0.96372
988.6	0.96313
988.8	0.96184
989.0	0.96053
989.2	0.96147
989.4	0.96096
989.6	0.95954
989.8	0.95815
990.0	0.96025
990.2	0.96095
990.4	0.96228
990.6	0.96064
990.8	0.95836
991.0	0.95769
991.2	0.95816
991.4	0.95943
991.6	0.95654
991.8	0.9561
992.0	0.95735
992.2	0.95737
992.4	0.95587
992.6	0.95482
992.8	0.95449
993.0	0.95381
993.2	0.95328
993.4	0.95475
993.6	0.95485
993.8	0.95641
994.0	0.95733
994.2	0.95607
994.4	0.95449
994.6	0.95531
994.8	0.95529
995.0	0.95503
995.2	0.95656
995.4	0.95741
995.6	0.95627
995.8	0.95871
996.0	0.95865
996.2	0.95852
996.4	0.9591
996.6	0.95746
996.8	0.95721
997.0	0.95952
997.2	0.96201
997.4	0.95975
997.6	0.95813
997.8	0.9597
998.0	0.96294
998.2	0.96384
998.4	0.96397
998.6	0.9655
998.8	0.96588
999.0	0.96521
999.2	0.96609
999.4	0.96646
999.6	0.96761
999.8	0.96912
1000.0	0.96931
1000.2	0.97048
1000.4	0.97157
1000.6	0.9724
1000.8	0.97278
1001.0	0.97364
1001.2	0.97296
1001.4	0.9709
1001.6	0.97023
1001.8	0.97107
1002.0	0.9732
1002.2	0.9749
1002.4	0.97595
1002.6	0.97459
1002.8	0.97418
1003.0	0.97379
1003.2	0.974
1003.4	0.97423
1003.6	0.97388
1003.8	0.9731
1004.0	0.97294
1004.2	0.97253
1004.4	0.97301
1004.6	0.97458
1004.8	0.97328
1005.0	0.97318
1005.2	0.97364
1005.4	0.97133
1005.6	0.97067
1005.8	0.97031
1006.0	0.97116
1006.2	0.9706
1006.4	0.96965
1006.6	0.9684
1006.8	0.96836
1007.0	0.969
1007.2	0.96988
1007.4	0.9702
1007.6	0.96942
1007.8	0.97062
1008.0	0.97336
1008.2	0.9749
1008.4	0.97164
1008.6	0.96866
1008.8	0.96761
1009.0	0.96693
1009.2	0.967
1009.4	0.9642
1009.6	0.96313
1009.8	0.96313
1010.0	0.96278
1010.2	0.96267
1010.4	0.96086
1010.6	0.96061
1010.8	0.96033
1011.0	0.95877
1011.2	0.95786
1011.4	0.9593
1011.6	0.96115
1011.8	0.95893
1012.0	0.9608
1012.2	0.9618
1012.4	0.96005
1012.6	0.96007
1012.8	0.95776
1013.0	0.95658
1013.2	0.95582
1013.4	0.95676
1013.6	0.95677
1013.8	0.95662
1014.0	0.9562
1014.2	0.95432
1014.4	0.95422
1014.6	0.95588
1014.8	0.95676
1015.0	0.95719
1015.2	0.95998
1015.4	0.95902
1015.6	0.95953
1015.8	0.96117
1016.0	0.96159
1016.2	0.96336
1016.4	0.96384
1016.6	0.96341
1016.8	0.96297
1017.0	0.96342
1017.2	0.96578
1017.4	0.9649
1017.6	0.96411
1017.8	0.96386
1018.0	0.96527
1018.2	0.9677
1018.4	0.96803
1018.6	0.96858
1018.8	0.96928
1019.0	0.96947
1019.2	0.97257
1019.4	0.9735
1019.6	0.97457
1019.8	0.97418
1020.0	0.97333
1020.2	0.97364
1020.4	0.97262
1020.6	0.97318
1020.8	0.97252
1021.0	0.97246
1021.2	0.9719
1021.4	0.97214
1021.6	0.97327
1021.8	0.97194
1022.0	0.97409
1022.2	0.97286
1022.4	0.97087
1022.6	0.96942
1022.8	0.96969
1023.0	0.97129
1023.2	0.97074
1023.4	0.97214
1023.6	0.97349
1023.8	0.97241
1024.0	0.97339
1024.2	0.97327
1024.4	0.97697
1024.6	0.97786
1024.8	0.97723
1025.0	0.9756
1025.2	0.97527
1025.4	0.97304
1025.6	0.97354
1025.8	0.97498
1026.0	0.97559
1026.2	0.97624
1026.4	0.97441
1026.6	0.97261
1026.8	0.97278
1027.0	0.97577
1027.2	0.97685
1027.4	0.97667
1027.6	0.9745
1027.8	0.97271
1028.0	0.97064
1028.2	0.96952
1028.4	0.96875
1028.6	0.96648
1028.8	0.96504
1029.0	0.96326
1029.2	0.9632
1029.4	0.96503
1029.6	0.96385
1029.8	0.96477
1030.0	0.96673
1030.2	0.96736
1030.4	0.96693
1030.6	0.96524
1030.8	0.96461
1031.0	0.96384
1031.2	0.96487
1031.4	0.96382
1031.6	0.96414
1031.8	0.9626
1032.0	0.96025
1032.2	0.96079
1032.4	0.96068
1032.6	0.96186
1032.8	0.96249
1033.0	0.96071
1033.2	0.95821
1033.4	0.95791
1033.6	0.95856
1033.8	0.96054
1034.0	0.96235
1034.2	0.96122
1034.4	0.96153
1034.6	0.96149
1034.8	0.96024
1035.0	0.9584
1035.2	0.95567
1035.4	0.95408
1035.6	0.9544
1035.8	0.95467
1036.0	0.95506
1036.2	0.95536
1036.4	0.9534
1036.6	0.95056
1036.8	0.95107
1037.0	0.94973
1037.2	0.95106
1037.4	0.9507
1037.6	0.9522
1037.8	0.95373
1038.0	0.95536
1038.2	0.95762
1038.4	0.95909
1038.6	0.95779
1038.8	0.95693
1039.0	0.95849
1039.2	0.95666
1039.4	0.95786
1039.6	0.95482
1039.8	0.95404
1040.0	0.95719
1040.2	0.96054
1040.4	0.96009
1040.6	0.96006
1040.8	0.96155
1041.0	0.96461
1041.2	0.96567
1041.4	0.96497
1041.6	0.96487
1041.8	0.96643
1042.0	0.96852
1042.2	0.96828
1042.4	0.96589
1042.6	0.96735
1042.8	0.97018
1043.0	0.96872
1043.2	0.96907
1043.4	0.97121
1043.6	0.9741
1043.8	0.9726
1044.0	0.96936
1044.2	0.9712
1044.4	0.97093
1044.6	0.97154
1044.8	0.97095
1045.0	0.97427
1045.2	0.97574
1045.4	0.97789
1045.6	0.97778
1045.8	0.97647
1046.0	0.97429
1046.2	0.97365
1046.4	0.97221
1046.6	0.9733
1046.8	0.97441
1047.0	0.97444
1047.2	0.97592
1047.4	0.97687
1047.6	0.97686
1047.8	0.97901
1048.0	0.97775
1048.2	0.9764
1048.4	0.97735
1048.6	0.97484
1048.8	0.97135
1049.0	0.97178
1049.2	0.96961
1049.4	0.96951
1049.6	0.96763
1049.8	0.96822
1050.0	0.96826
1050.2	0.96733
1050.4	0.96745
1050.6	0.96604
1050.8	0.96589
1051.0	0.96744
1051.2	0.96622
1051.4	0.96944
1051.6	0.97
1051.8	0.96728
1052.0	0.96547
1052.2	0.96518
1052.4	0.9641
1052.6	0.96382
1052.8	0.96025
1053.0	0.96163
1053.2	0.96062
1053.4	0.95978
1053.6	0.96026
1053.8	0.95902
1054.0	0.95777
1054.2	0.95953
1054.4	0.95833
1054.6	0.95839
1054.8	0.9583
1055.0	0.95865
1055.2	0.95794
1055.4	0.95708
1055.6	0.95603
1055.8	0.95274
1056.0	0.95196
1056.2	0.95357
1056.4	0.95646
1056.6	0.95727
1056.8	0.95615
1057.0	0.95322
1057.2	0.95495
1057.4	0.95584
1057.6	0.95482
1057.8	0.95351
1058.0	0.95557
1058.2	0.95496
1058.4	0.95541
1058.6	0.95564
1058.8	0.95803
1059.0	0.95779
1059.2	0.95788
1059.4	0.95709
1059.6	0.95639
1059.8	0.95702
1060.0	0.95537
1060.2	0.95767
1060.4	0.95887
1060.6	0.95954
1060.8	0.956
1061.0	0.95672
1061.2	0.95782
1061.4	0.95673
1061.6	0.95462
1061.8	0.95718
1062.0	0.95512
1062.2	0.96029
1062.4	0.95666
1062.6	0.95758
1062.8	0.95737
1063.0	0.95596
1063.2	0.95892
1063.4	0.96181
1063.6	0.96214
1063.8	0.96218
1064.0	0.96271
1064.2	0.96342
1064.4	0.96607
1064.6	0.96744
1064.8	0.96818
1065.0	0.96911
1065.2	0.97001
1065.4	0.97352
1065.6	0.97039
1065.8	0.97072
1066.0	0.97483
1066.2	0.9729
1066.4	0.97072
1066.6	0.97132
1066.8	0.97261
1067.0	0.97128
1067.2	0.97163
1067.4	0.97234
1067.6	0.97126
1067.8	0.97127
1068.0	0.97181
1068.2	0.97362
1068.4	0.97362
1068.6	0.97364
1068.8	0.97408
1069.0	0.97383
1069.2	0.97562
1069.4	0.97567
1069.6	0.97618
1069.8	0.97758
1070.0	0.9758
1070.2	0.97517
1070.4	0.97304
1070.6	0.97326
1070.8	0.97411
1071.0	0.97352
1071.2	0.97076
1071.4	0.97222
1071.6	0.97574
1071.8	0.97658
1072.0	0.97592
1072.2	0.97755
1072.4	0.979
1072.6	0.97958
1072.8	0.97701
1073.0	0.97544
1073.2	0.97369
1073.4	0.97449
1073.6	0.97358
1073.8	0.97211
1074.0	0.96948
1074.2	0.96888
1074.4	0.96862
1074.6	0.96465
1074.8	0.96496
1075.0	0.9665
1075.2	0.96328
1075.4	0.96611
1075.6	0.96322
1075.8	0.96227
1076.0	0.96587
1076.2	0.96386
1076.4	0.96179
1076.6	0.96193
1076.8	0.9599
1077.0	0.9602
1077.2	0.96355
1077.4	0.96146
1077.6	0.95881
1077.8	0.95981
1078.0	0.95985
1078.2	0.95965
1078.4	0.95784
1078.6	0.96098
1078.8	0.96425
1079.0	0.95964
1079.2	0.96159
1079.4	0.95865
1079.6	0.95589
1079.8	0.962
1080.0	0.96037
1080.2	0.96352
1080.4	0.96067
1080.6	0.96002
1080.8	0.95975
1081.0	0.95831
1081.2	0.95611
1081.4	0.95759
1081.6	0.95589
1081.8	0.95461
1082.0	0.95899
1082.2	0.9569
1082.4	0.95864
1082.6	0.95731
1082.8	0.95593
1083.0	0.95723
1083.2	0.95915
1083.4	0.95752
1083.6	0.95786
1083.8	0.95676
1084.0	0.95662
1084.2	0.9593
1084.4	0.95769
1084.6	0.96017
1084.8	0.95865
1085.0	0.96105
1085.2	0.9606
1085.4	0.96273
1085.6	0.96366
1085.8	0.9638
1086.0	0.96437
1086.2	0.96449
1086.4	0.9604
1086.6	0.96289
1086.8	0.96372
1087.0	0.96147
1087.2	0.96413
1087.4	0.96392
1087.6	0.96746
1087.8	0.96612
1088.0	0.96648
1088.2	0.96514
1088.4	0.96814
1088.6	0.96745
1088.8	0.96661
1089.0	0.96813
1089.2	0.96945
1089.4	0.96914
1089.6	0.96864
1089.8	0.9683
1090.0	0.97306
1090.2	0.97318
1090.4	0.97834
1090.6	0.98145
1090.8	0.97733
1091.0	0.97546
1091.2	0.97558
1091.4	0.97707
1091.6	0.97873
1091.8	0.97862
1092.0	0.98022
1092.2	0.97678
1092.4	0.98176
1092.6	0.97698
1092.8	0.98004
1093.0	0.97939
1093.2	0.98232
1093.4	0.9792
1093.6	0.97763
1093.8	0.97801
1094.0	0.97576
1094.2	0.97897
1094.4	0.97715
1094.6	0.97796
1094.8	0.97628
1095.0	0.97357
1095.2	0.97089
1095.4	0.97336
1095.6	0.97294
1095.8	0.97203
1096.0	0.97507
1096.2	0.97141
1096.4	0.97065
1096.6	0.97388
1096.8	0.97144
1097.0	0.96797
1097.2	0.97347
1097.4	0.97161
1097.6	0.97456
1097.8	0.97107
1098.0	0.97708
1098.2	0.97007
1098.4	0.97109
1098.6	0.97242
1098.8	0.96753
1099.0	0.97071
1099.2	0.96573
1099.4	0.96854
1099.6	0.96544
1099.8	0.96465
1100.0	0.96095
1100.2	0.96341
1100.4	0.95887
1100.6	0.96257
1100.8	0.95776
1101.0	0.96017
1101.2	0.96252
1101.4	0.95982
1101.6	0.96199
1101.8	0.95815
1102.0	0.95696
1102.2	0.95991
1102.4	0.9559
1102.6	0.95752
1102.8	0.95807
1103.0	0.95647
1103.2	0.95618
1103.4	0.95498
1103.6	0.95594
1103.8	0.95444
1104.0	0.95688
1104.2	0.95137
1104.4	0.95697
1104.6	0.95449
1104.8	0.95583
1105.0	0.95437
1105.2	0.95184
1105.4	0.95387
1105.6	0.95697
1105.8	0.95443
1106.0	0.9516
1106.2	0.94952
1106.4	0.955
1106.6	0.95704
1106.8	0.95518
1107.0	0.95926
1107.2	0.96128
1107.4	0.95751
1107.6	0.95861
1107.8	0.95827
1108.0	0.95614
1108.2	0.95635
1108.4	0.95564
1108.6	0.95522
1108.8	0.95672
1109.0	0.96204
1109.2	0.96013
1109.4	0.95807
1109.6	0.95871
1109.8	0.9589
1110.0	0.9592
1110.2	0.96031
1110.4	0.95713
1110.6	0.96109
1110.8	0.95973
1111.0	0.95978
1111.2	0.95993
1111.4	0.96457
1111.6	0.96724
1111.8	0.9636
1112.0	0.96457
1112.2	0.96233
1112.4	0.96242
1112.6	0.96738
1112.8	0.96554
1113.0	0.96504
1113.2	0.96448
1113.4	0.96739
1113.6	0.96529
1113.8	0.97002
1114.0	0.96338
1114.2	0.97137
1114.4	0.96895
1114.6	0.9729
1114.8	0.97278
1115.0	0.97229
1115.2	0.9778
1115.4	0.96999
1115.6	0.96945
1115.8	0.96831
1116.0	0.97151
1116.2	0.96931
1116.4	0.97342
1116.6	0.97244
1116.8	0.97344
1117.0	0.97565
1117.2	0.9729
1117.4	0.97768
1117.6	0.98142
1117.8	0.97434
1118.0	0.97614
1118.2	0.97785
1118.4	0.9744
1118.6	0.97844
1118.8	0.97973
1119.0	0.97543
1119.2	0.97726
1119.4	0.98136
1119.6	0.97975
1119.8	0.97943
1120.0	0.98465
1120.2	0.98615
1120.4	0.98072
1120.6	0.9885
1120.8	0.9818
1121.0	0.97825
1121.2	0.97724
1121.4	0.98569
1121.6	0.98427
1121.8	0.97671
1122.0	0.98051
1122.2	0.97554
1122.4	0.98114
1122.6	0.98173
1122.8	0.97172
1123.0	0.97748
1123.2	0.97963
1123.4	0.97521
1123.6	0.9761
1123.8	0.97137
1124.0	0.96604
1124.2	0.96485
1124.4	0.97392
1124.6	0.96944
1124.8	0.96416
1125.0	0.96648
1125.2	0.96622
1125.4	0.96597
1125.6	0.96571
1125.8	0.96545
1126.0	0.9652
1126.2	0.96494
1126.4	0.96469
1126.6	0.96443
1126.8	0.96417
1127.0	0.96392
1127.2	0.96366
1127.4	0.96341
1127.6	0.96315
1127.8	0.96289
1128.0	0.96264
1128.2	0.96238
1128.4	0.96213
1128.6	0.96187
1128.8	0.96162
1129.0	0.96136
1129.2	0.9611
1129.4	0.96085
1129.6	0.96059
1129.8	0.96034
1130.0	0.96008
1130.2	0.95981
1130.4	0.95953
1130.6	0.95926
1130.8	0.95899
1131.0	0.95871
1131.2	0.95844
1131.4	0.95817
1131.6	0.95789
1131.8	0.95762
1132.0	0.95735
1132.2	0.95707
1132.4	0.9568
1132.6	0.95653
1132.8	0.95625
1133.0	0.95598
1133.2	0.95571
1133.4	0.95543
1133.6	0.95516
1133.8	0.95489
1134.0	0.95461
1134.2	0.95434
1134.4	0.95407
1134.6	0.95379
1134.8	0.95352
1135.0	0.95325
1135.2	0.95329
1135.4	0.95334
1135.6	0.95339
1135.8	0.95343
1136.0	0.95348
1136.2	0.95353
1136.4	0.95357
1136.6	0.95362
1136.8	0.95366
1137.0	0.95371
1137.2	0.95376
1137.4	0.9538
1137.6	0.95385
1137.8	0.9539
1138.0	0.95394
1138.2	0.95399
1138.4	0.95403
1138.6	0.95408
1138.8	0.95413
1139.0	0.95417
1139.2	0.95422
1139.4	0.95427
1139.6	0.95431
1139.8	0.95436
1140.0	0.95441
1140.2	0.95475
1140.4	0.95509
1140.6	0.95543
1140.8	0.95577
1141.0	0.95612
1141.2	0.95646
1141.4	0.9568
1141.6	0.95714
1141.8	0.95749
1142.0	0.95783
1142.2	0.95817
1142.4	0.95851
1142.6	0.95885
1142.8	0.9592
1143.0	0.95954
1143.2	0.95988
1143.4	0.96022
1143.6	0.96056
1143.8	0.96091
1144.0	0.96125
1144.2	0.96159
1144.4	0.96193
1144.6	0.96228
1144.8	0.96262
1145.0	0.96296
1145.2	0.96314
1145.4	0.96333
1145.6	0.96351
1145.8	0.96369
1146.0	0.96388
1146.2	0.96406
1146.4	0.96425
1146.6	0.96443
1146.8	0.96461
1147.0	0.9648
1147.2	0.96498
1147.4	0.96516
1147.6	0.96535
1147.8	0.96553
1148.0	0.96571
1148.2	0.9659
1148.4	0.96608
1148.6	0.96627
1148.8	0.96645
1149.0	0.96663
1149.2	0.96682
1149.4	0.967
1149.6	0.96718
1149.8	0.96737
1150.0	0.96755
1150.2	0.96733
1150.4	0.9671
1150.6	0.96688
1150.8	0.96665
1151.0	0.96643
1151.2	0.9662
1151.4	0.96598
1151.6	0.96575
1151.8	0.96553
1152.0	0.9653
1152.2	0.96508
1152.4	0.96485
1152.6	0.96463
1152.8	0.9644
1153.0	0.96418
1153.2	0.96395
1153.4	0.96373
1153.6	0.9635
1153.8	0.96328
1154.0	0.96305
1154.2	0.96283
1154.4	0.9626
1154.6	0.96238
1154.8	0.96215
1155.0	0.96193
1155.2	0.96173
1155.4	0.96153
1155.6	0.96134
1155.8	0.96114
1156.0	0.96094
1156.2	0.96075
1156.4	0.96055
1156.6	0.96035
1156.8	0.96016
1157.0	0.95996
1157.2	0.95976
1157.4	0.95957
1157.6	0.95937
1157.8	0.95917
1158.0	0.95898
1158.2	0.95878
1158.4	0.95858
1158.6	0.95839
1158.8	0.95819
1159.0	0.95799
1159.2	0.9578
1159.4	0.9576
1159.6	0.9574
1159.8	0.95721
1160.0	0.95701
1160.2	0.95689
1160.4	0.95676
1160.6	0.95663
1160.8	0.95651
1161.0	0.95638
1161.2	0.95625
1161.4	0.95613
1161.6	0.956
1161.8	0.95588
1162.0	0.95575
1162.2	0.95562
1162.4	0.9555
1162.6	0.95537
1162.8	0.95525
1163.0	0.95512
1163.2	0.95499
1163.4	0.95487
1163.6	0.95474
1163.8	0.95462
1164.0	0.95449
1164.2	0.95436
1164.4	0.95424
1164.6	0.95411
1164.8	0.95399
1165.0	0.95386
1165.2	0.95424
1165.4	0.95463
1165.6	0.95501
1165.8	0.9554
1166.0	0.95578
1166.2	0.95617
1166.4	0.95655
1166.6	0.95694
1166.8	0.95732
1167.0	0.95771
1167.2	0.95809
1167.4	0.95848
1167.6	0.95886
1167.8	0.95925
1168.0	0.95963
1168.2	0.96002
1168.4	0.9604
1168.6	0.96079
1168.8	0.96117
1169.0	0.96156
1169.2	0.96194
1169.4	0.96232
1169.6	0.96271
1169.8	0.96309
1170.0	0.96348
1170.2	0.96373
1170.4	0.96398
1170.6	0.96423
1170.8	0.96448
1171.0	0.96473
1171.2	0.96498
1171.4	0.96523
1171.6	0.96548
1171.8	0.96573
1172.0	0.96598
1172.2	0.96623
1172.4	0.96648
1172.6	0.96673
1172.8	0.96698
1173.0	0.96723
1173.2	0.96748
1173.4	0.96773
1173.6	0.96798
1173.8	0.96823
1174.0	0.96848
1174.2	0.96873
1174.4	0.96898
1174.6	0.96923
1174.8	0.96948
1175.0	0.96973
1175.2	0.96967
1175.4	0.96961
1175.6	0.96955
1175.8	0.96949
1176.0	0.96943
1176.2	0.96937
1176.4	0.96931
1176.6	0.96925
1176.8	0.96919
1177.0	0.96914
1177.2	0.96908
1177.4	0.96902
1177.6	0.96896
1177.8	0.9689
1178.0	0.96884
1178.2	0.96878
1178.4	0.96872
1178.6	0.96866
1178.8	0.9686
1179.0	0.96854
1179.2	0.96848
1179.4	0.96842
1179.6	0.96837
1179.8	0.96831
1180.0	0.96825
1180.2	0.96786
1180.4	0.96748
1180.6	0.96709
1180.8	0.96671
1181.0	0.96633
1181.2	0.96594
1181.4	0.96556
1181.6	0.96517
1181.8	0.96479
1182.0	0.96441
1182.2	0.96402
1182.4	0.96364
1182.6	0.96325
1182.8	0.96287
1183.0	0.96249
1183.2	0.9621
1183.4	0.96172
1183.6	0.96133
1183.8	0.96095
1184.0	0.96056
1184.2	0.96018
1184.4	0.9598
1184.6	0.95941
1184.8	0.95903
1185.0	0.95864
1185.2	0.95861
1185.4	0.95857
1185.6	0.95854
1185.8	0.9585
1186.0	0.95847
1186.2	0.95843
1186.4	0.9584
1186.6	0.95836
1186.8	0.95833
1187.0	0.95829
1187.2	0.95825
1187.4	0.95822
1187.6	0.95818
1187.8	0.95815
1188.0	0.95811
1188.2	0.95808
1188.4	0.95804
1188.6	0.95801
1188.8	0.95797
1189.0	0.95794
1189.2	0.9579
1189.4	0.95786
1189.6	0.95783
1189.8	0.95779
1190.0	0.95776
1190.2	0.95811
1190.4	0.95847
1190.6	0.95882
1190.8	0.95917
1191.0	0.95953
1191.2	0.95988
1191.4	0.96024
1191.6	0.96059
1191.8	0.96094
1192.0	0.9613
1192.2	0.96165
1192.4	0.96201
1192.6	0.96236
1192.8	0.96272
1193.0	0.96307
1193.2	0.96342
1193.4	0.96378
1193.6	0.96413
1193.8	0.96449
1194.0	0.96484
1194.2	0.96519
1194.4	0.96555
1194.6	0.9659
1194.8	0.96626
1195.0	0.96661
1195.2	0.96691
1195.4	0.96721
1195.6	0.96751
1195.8	0.96781
1196.0	0.96811
1196.2	0.96841
1196.4	0.96871
1196.6	0.969
1196.8	0.9693
1197.0	0.9696
1197.2	0.9699
1197.4	0.9702
1197.6	0.9705
1197.8	0.9708
1198.0	0.9711
1198.2	0.9714
1198.4	0.9717
1198.6	0.972
1198.8	0.9723
1199.0	0.9726
1199.2	0.9729
1199.4	0.9732
1199.6	0.9735
1199.8	0.97379
1200.0	0.97409
1200.2	0.97418
1200.4	0.97426
1200.6	0.97434
1200.8	0.97443
1201.0	0.97451
1201.2	0.97459
1201.4	0.97467
1201.6	0.97476
1201.8	0.97484
1202.0	0.97492
1202.2	0.975
1202.4	0.97509
1202.6	0.97517
1202.8	0.97525
1203.0	0.97534
1203.2	0.97542
1203.4	0.9755
1203.6	0.97558
1203.8	0.97567
1204.0	0.97575
1204.2	0.97583
1204.4	0.97592
1204.6	0.976
1204.8	0.97608
1205.0	0.97616
1205.2	0.97595
1205.4	0.97574
1205.6	0.97552
1205.8	0.97531
1206.0	0.9751
1206.2	0.97489
1206.4	0.97467
1206.6	0.97446
1206.8	0.97425
1207.0	0.97403
1207.2	0.97382
1207.4	0.97361
1207.6	0.9734
1207.8	0.97318
1208.0	0.97297
1208.2	0.97276
1208.4	0.97254
1208.6	0.97233
1208.8	0.97212
1209.0	0.9719
1209.2	0.97169
1209.4	0.97148
1209.6	0.97127
1209.8	0.97105
1210.0	0.97084